LoopCnt,H10Mode,H10AssistLevel,ImuHubConnected,LeftHipAngle,RightHipAngle,LeftThighAngle,RightThighAngle,LeftHipTorque,RightHipTorque,LeftHipMotorAngle,RightHipMotorAngle,LeftHipImuGlobalAccX,LeftHipImuGlobalAccY,LeftHipImuGlobalAccZ,LeftHipImuGlobalGyrX,LeftHipImuGlobalGyrY,LeftHipImuGlobalGyrZ,RightHipImuGlobalAccX,RightHipImuGlobalAccY,RightHipImuGlobalAccZ,RightHipImuGlobalGyrX,RightHipImuGlobalGyrY,RightHipImuGlobalGyrZ,TrunkIMU_LocalAccX,TrunkIMU_LocalAccY,TrunkIMU_LocalAccZ,TrunkIMU_LocalGyrX,TrunkIMU_LocalGyrY,TrunkIMU_LocalGyrZ,TrunkIMU_QuatW,TrunkIMU_QuatX,TrunkIMU_QuatY,TrunkIMU_QuatZ,L_THIGH_IMU_QuatW,L_THIGH_IMU_QuatX,L_THIGH_IMU_QuatY,L_THIGH_IMU_QuatZ,L_THIGH_IMU_AccX,L_THIGH_IMU_AccY,L_THIGH_IMU_AccZ,L_THIGH_IMU_GyrX,L_THIGH_IMU_GyrY,L_THIGH_IMU_GyrZ,L_SHANK_IMU_QuatW,L_SHANK_IMU_QuatX,L_SHANK_IMU_QuatY,L_SHANK_IMU_QuatZ,L_SHANK_IMU_AccX,L_SHANK_IMU_AccY,L_SHANK_IMU_AccZ,L_SHANK_IMU_GyrX,L_SHANK_IMU_GyrY,L_SHANK_IMU_GyrZ,L_FOOT_IMU_QuatW,L_FOOT_IMU_QuatX,L_FOOT_IMU_QuatY,L_FOOT_IMU_QuatZ,L_FOOT_IMU_AccX,L_FOOT_IMU_AccY,L_FOOT_IMU_AccZ,L_FOOT_IMU_GyrX,L_FOOT_IMU_GyrY,L_FOOT_IMU_GyrZ,R_THIGH_IMU_QuatW,R_THIGH_IMU_QuatX,R_THIGH_IMU_QuatY,R_THIGH_IMU_QuatZ,R_THIGH_IMU_AccX,R_THIGH_IMU_AccY,R_THIGH_IMU_AccZ,R_THIGH_IMU_GyrX,R_THIGH_IMU_GyrY,R_THIGH_IMU_GyrZ,R_SHANK_IMU_QuatW,R_SHANK_IMU_QuatX,R_SHANK_IMU_QuatY,R_SHANK_IMU_QuatZ,R_SHANK_IMU_AccX,R_SHANK_IMU_AccY,R_SHANK_IMU_AccZ,R_SHANK_IMU_GyrX,R_SHANK_IMU_GyrY,R_SHANK_IMU_GyrZ,R_FOOT_IMU_QuatW,R_FOOT_IMU_QuatX,R_FOOT_IMU_QuatY,R_FOOT_IMU_QuatZ,R_FOOT_IMU_AccX,R_FOOT_IMU_AccY,R_FOOT_IMU_AccZ,R_FOOT_IMU_GyrX,R_FOOT_IMU_GyrY,R_FOOT_IMU_GyrZ
119517,0,0,1,-5.5371,-0.2856,-2.6367,2.6147,-0.0073,-0.0146,-7.3828,-2.4170,-0.0239,9.7683,0.0000,1.3733,-1.1902,-1.8311,-0.0239,9.7683,0.0000,1.3733,-1.1902,-1.8311,9.7338,-0.2057,1.0054,-0.0244,-0.0401,-0.0005,0.0810,0.6636,-0.0879,0.7385,0.5123,0.4787,-0.4804,0.5267,9.7900,-0.1900,0.8300,0.0000,0.0000,0.0000,0.6158,0.4004,-0.4991,0.4595,9.6800,0.3000,1.8000,0.0000,0.0000,0.0000,0.2315,-0.2910,-0.9278,0.0265,4.0200,-1.8000,-8.7400,0.0000,0.0000,0.0000,0.6133,-0.4057,-0.4548,-0.5023,9.4700,-0.4400,2.5400,0.0000,0.0000,0.0000,-0.5139,0.4618,0.4409,0.5728,9.6700,0.3100,1.7800,0.0000,0.0000,0.0000,0.2306,-0.4138,-0.8655,-0.1621,5.2400,0.8900,-8.2600,0.0000,0.0000,0.0000
119518,0,0,1,-5.5371,-0.2856,-2.6367,2.6147,-0.0018,0.0092,-7.3828,-2.4170,0.0048,9.7779,-0.0287,1.1597,-1.2817,-1.8616,0.0048,9.7779,-0.0287,1.1597,-1.2817,-1.8616,9.6794,-0.2087,1.0288,-0.0275,-0.0421,-0.0014,0.0811,0.6636,-0.0879,0.7384,0.5122,0.4787,-0.4805,0.5267,9.7600,-0.1300,0.8200,0.0000,0.0000,0.0000,0.6158,0.4004,-0.4991,0.4595,9.6800,0.3000,1.8000,0.0000,0.0000,0.0000,0.2315,-0.2910,-0.9278,0.0265,4.0500,-1.7900,-8.7300,0.0000,0.0000,0.0000,0.6132,-0.4057,-0.4548,-0.5023,9.3900,-0.6700,2.6100,0.0000,0.0000,0.0000,-0.5139,0.4618,0.4409,0.5728,9.6400,0.2800,1.7800,0.0000,0.0000,0.0000,0.2306,-0.4138,-0.8655,-0.1621,5.2300,0.8700,-8.2400,0.0000,0.0000,0.0000
119519,0,0,1,-5.5371,-0.2856,-2.6367,2.6147,0.0073,-0.0183,-7.3828,-2.4170,0.0575,9.7923,0.0215,1.1597,-1.3428,-1.7090,0.0575,9.7923,0.0215,1.1597,-1.3428,-1.7090,9.6794,-0.2087,1.0288,-0.0275,-0.0421,-0.0014,0.0811,0.6636,-0.0879,0.7384,0.5122,0.4787,-0.4804,0.5267,9.7400,-0.1400,0.8600,0.0000,0.0000,0.0000,0.6158,0.4004,-0.4991,0.4595,9.6600,0.2800,1.8100,0.0000,0.0000,0.0000,0.2315,-0.2910,-0.9278,0.0265,4.0500,-1.7900,-8.7300,0.0000,0.0000,0.0000,0.6132,-0.4057,-0.4548,-0.5023,9.5100,-0.4500,2.6200,0.0000,0.0000,0.0000,-0.5139,0.4617,0.4409,0.5728,9.6100,0.2500,1.7900,0.0000,0.0000,0.0000,0.2306,-0.4138,-0.8655,-0.1621,5.2300,0.8700,-8.2400,0.0000,0.0000,0.0000
119520,0,0,1,-5.5371,-0.2856,-2.6367,2.6147,0.0146,-0.0037,-7.3828,-2.4170,0.0215,9.7731,-0.0263,1.2817,-1.2817,-1.7090,0.0215,9.7731,-0.0263,1.2817,-1.2817,-1.7090,9.6837,-0.2018,1.0411,-0.0235,-0.0399,-0.0014,0.0811,0.6637,-0.0880,0.7384,0.5122,0.4788,-0.4804,0.5267,9.7800,-0.1900,0.8600,0.0000,0.0000,0.0000,0.6158,0.4004,-0.4991,0.4596,9.6600,0.2800,1.8100,0.0000,0.0000,0.0000,0.2315,-0.2910,-0.9278,0.0265,4.0300,-1.8000,-8.7200,0.0000,0.0000,0.0000,0.6131,-0.4058,-0.4548,-0.5024,9.4300,-0.4000,2.4800,0.0000,0.0000,0.0000,-0.5139,0.4617,0.4409,0.5729,9.6000,0.2400,1.8100,0.0000,0.0000,0.0000,0.2306,-0.4138,-0.8655,-0.1621,5.2100,0.8700,-8.2200,0.0000,0.0000,0.0000
119521,0,0,1,-5.5371,-0.2856,-2.6367,2.6147,-0.0055,-0.0055,-7.3828,-2.4170,0.0192,9.7109,-0.0072,1.3428,-1.1597,-1.8311,0.0192,9.7109,-0.0072,1.3428,-1.1597,-1.8311,9.6837,-0.2018,1.0411,-0.0235,-0.0399,-0.0014,0.0811,0.6637,-0.0880,0.7384,0.5122,0.4788,-0.4804,0.5267,9.7800,-0.1900,0.8600,0.0000,0.0000,0.0000,0.6158,0.4003,-0.4991,0.4596,9.6500,0.3100,1.7900,0.0000,0.0000,0.0000,0.2315,-0.2910,-0.9278,0.0265,4.0300,-1.8000,-8.7200,0.0000,0.0000,0.0000,0.6131,-0.4058,-0.4549,-0.5024,9.4500,-0.4400,2.5200,0.0000,0.0000,0.0000,-0.5139,0.4617,0.4409,0.5729,9.6000,0.2400,1.8100,0.0000,0.0000,0.0000,0.2306,-0.4138,-0.8655,-0.1621,5.2000,0.8900,-8.2400,0.0000,0.0000,0.0000
119522,0,0,1,-5.5371,-0.2856,-2.6367,2.6147,-0.0238,0.0128,-7.3828,-2.4170,0.0072,9.7683,-0.0814,0.9766,-1.3123,-1.9836,0.0072,9.7683,-0.0814,0.9766,-1.3123,-1.9836,9.6837,-0.2018,1.0411,-0.0235,-0.0399,-0.0014,0.0811,0.6637,-0.0880,0.7384,0.5121,0.4788,-0.4804,0.5268,9.7600,-0.1900,0.8600,0.0000,0.0000,0.0000,0.6158,0.4003,-0.4992,0.4596,9.6400,0.3300,1.7900,0.0000,0.0000,0.0000,0.2315,-0.2911,-0.9278,0.0265,4.0200,-1.8300,-8.7400,0.0000,0.0000,0.0000,0.6130,-0.4058,-0.4549,-0.5024,9.4600,-0.4100,2.4900,0.0000,0.0000,0.0000,-0.5138,0.4617,0.4409,0.5729,9.5800,0.2500,1.8100,0.0000,0.0000,0.0000,0.2306,-0.4138,-0.8655,-0.1621,5.2400,0.8900,-8.2500,0.0000,0.0000,0.0000
119523,0,0,1,-5.5371,-0.2856,-2.6367,2.6147,0.0037,-0.0110,-7.3828,-2.4170,0.0024,9.9359,-0.1030,0.9766,-1.2817,-1.8616,0.0024,9.9359,-0.1030,0.9766,-1.2817,-1.8616,10.2552,-0.1693,1.2121,-0.0245,-0.0233,-0.0057,0.0811,0.6638,-0.0880,0.7383,0.5121,0.4788,-0.4804,0.5268,9.7500,-0.1900,0.8500,0.0000,0.0000,0.0000,0.6158,0.4003,-0.4992,0.4596,9.6400,0.3300,1.7900,0.0000,0.0000,0.0000,0.2315,-0.2911,-0.9278,0.0265,4.0400,-1.8400,-8.7300,0.0000,0.0000,0.0000,0.6130,-0.4058,-0.4549,-0.5024,9.4600,-0.4100,2.4900,0.0000,0.0000,0.0000,-0.5138,0.4617,0.4409,0.5729,9.6000,0.2600,1.8400,0.0000,0.0000,0.0000,0.2306,-0.4138,-0.8655,-0.1621,5.2300,0.8800,-8.2200,0.0000,0.0000,0.0000
119524,0,0,1,-5.5371,-0.2856,-2.6367,2.6147,-0.0128,0.0183,-7.3828,-2.4170,-0.0694,10.0317,-0.1269,0.8240,-1.4038,-2.1667,-0.0694,10.0317,-0.1269,0.8240,-1.4038,-2.1667,10.2552,-0.1693,1.2121,-0.0245,-0.0233,-0.0057,0.0811,0.6638,-0.0880,0.7383,0.5121,0.4788,-0.4804,0.5268,9.7700,-0.1800,0.8600,0.0000,0.0000,0.0000,0.6158,0.4003,-0.4992,0.4596,9.6300,0.3400,1.7900,0.0000,0.0000,0.0000,0.2315,-0.2910,-0.9278,0.0265,4.0500,-1.7900,-8.7300,0.0000,0.0000,0.0000,0.6130,-0.4058,-0.4549,-0.5025,9.5000,-0.4200,2.5100,0.0000,0.0000,0.0000,-0.5138,0.4616,0.4409,0.5730,9.6300,0.2600,1.8500,0.0000,0.0000,0.0000,0.2306,-0.4138,-0.8655,-0.1621,5.2300,0.8800,-8.2200,0.0000,0.0000,0.0000
119525,0,0,1,-5.5591,-0.2856,-2.6587,2.6147,-0.0018,-0.0128,-7.3828,-2.4170,0.0455,9.8162,0.3424,0.6714,-1.4038,-1.5869,0.0455,9.8162,0.3424,0.6714,-1.4038,-1.5869,9.6558,-0.1836,1.2984,-0.0218,-0.0564,-0.0030,0.0812,0.6639,-0.0881,0.7382,0.5120,0.4789,-0.4804,0.5268,9.7700,-0.1000,0.8800,0.0000,0.0000,0.0000,0.6158,0.4002,-0.4992,0.4596,9.6300,0.3800,1.8000,0.0000,0.0000,0.0000,0.2315,-0.2910,-0.9278,0.0265,4.0500,-1.7900,-8.7300,0.0000,0.0000,0.0000,0.6129,-0.4058,-0.4549,-0.5025,9.5400,-0.6600,2.5900,0.0000,0.0000,0.0000,-0.5137,0.4616,0.4410,0.5730,9.6200,0.2500,1.8300,0.0000,0.0000,0.0000,0.2306,-0.4138,-0.8655,-0.1621,5.2400,0.8900,-8.2200,0.0000,0.0000,0.0000
119526,0,0,1,-5.5371,-0.2637,-2.6587,2.6147,0.0256,0.0128,-7.3828,-2.4170,-0.0192,9.8306,-0.2849,1.0681,-1.2817,-2.4719,-0.0192,9.8306,-0.2849,1.0681,-1.2817,-2.4719,9.6558,-0.1836,1.2984,-0.0218,-0.0564,-0.0030,0.0812,0.6639,-0.0881,0.7382,0.5120,0.4789,-0.4804,0.5268,9.7700,-0.1000,0.8800,0.0000,0.0000,0.0000,0.6158,0.4002,-0.4992,0.4596,9.6000,0.3600,1.7800,0.0000,0.0000,0.0000,0.2315,-0.2910,-0.9278,0.0265,4.0700,-1.7900,-8.7400,0.0000,0.0000,0.0000,0.6128,-0.4059,-0.4549,-0.5025,9.5200,-0.3600,2.6000,0.0000,0.0000,0.0000,-0.5137,0.4616,0.4410,0.5730,9.6200,0.2500,1.8300,0.0000,0.0000,0.0000,0.2306,-0.4138,-0.8655,-0.1621,5.2500,0.8800,-8.2200,0.0000,0.0000,0.0000
119527,0,0,1,-5.5371,-0.2637,-2.6587,2.6147,-0.0037,0.0165,-7.3828,-2.4170,0.0503,9.9479,-0.0790,1.0376,-1.4343,-2.3499,0.0503,9.9479,-0.0790,1.0376,-1.4343,-2.3499,9.6558,-0.1836,1.2984,-0.0218,-0.0564,-0.0030,0.0812,0.6639,-0.0881,0.7382,0.5120,0.4789,-0.4804,0.5268,9.8200,-0.1700,0.9100,0.0000,0.0000,0.0000,0.6158,0.4002,-0.4992,0.4596,9.6200,0.3600,1.8000,0.0000,0.0000,0.0000,0.2315,-0.2910,-0.9278,0.0265,4.0600,-1.8000,-8.7300,0.0000,0.0000,0.0000,0.6128,-0.4059,-0.4549,-0.5026,9.4500,-0.3500,2.4500,0.0000,0.0000,0.0000,-0.5137,0.4616,0.4410,0.5730,9.5800,0.2700,1.8600,0.0000,0.0000,0.0000,0.2306,-0.4137,-0.8655,-0.1621,5.2600,0.8800,-8.2200,0.0000,0.0000,0.0000
119528,0,0,1,-5.5371,-0.2637,-2.6587,2.6147,0.0165,0.0055,-7.3828,-2.4170,-0.0263,9.9527,0.0287,1.1292,-1.7090,-2.3499,-0.0263,9.9527,0.0287,1.1292,-1.7090,-2.3499,9.7114,0.4025,1.2902,-0.0396,-0.0391,-0.0067,0.0812,0.6639,-0.0881,0.7381,0.5119,0.4789,-0.4804,0.5268,9.8000,-0.2200,0.8800,0.0000,0.0000,0.0000,0.6158,0.4002,-0.4992,0.4596,9.6200,0.3600,1.8000,0.0000,0.0000,0.0000,0.2315,-0.2910,-0.9278,0.0265,4.0500,-1.7900,-8.7200,0.0000,0.0000,0.0000,0.6128,-0.4059,-0.4549,-0.5026,9.4500,-0.3500,2.4500,0.0000,0.0000,0.0000,-0.5137,0.4616,0.4410,0.5731,9.6000,0.2800,1.8700,0.0000,0.0000,0.0000,0.2306,-0.4137,-0.8655,-0.1621,5.2600,0.9000,-8.2200,0.0000,0.0000,0.0000
119529,0,0,1,-5.5371,-0.2637,-2.6587,2.6147,-0.0146,0.0110,-7.3828,-2.4170,0.0048,9.8857,-0.0048,0.6714,-1.8921,-2.4109,0.0048,9.8857,-0.0048,0.6714,-1.8921,-2.4109,9.7114,0.4025,1.2902,-0.0396,-0.0391,-0.0067,0.0812,0.6639,-0.0881,0.7381,0.5119,0.4789,-0.4804,0.5268,9.7600,-0.1500,0.8600,0.0000,0.0000,0.0000,0.6158,0.4002,-0.4993,0.4596,9.6200,0.3700,1.7900,0.0000,0.0000,0.0000,0.2315,-0.2910,-0.9278,0.0265,4.0300,-1.8100,-8.7500,0.0000,0.0000,0.0000,0.6127,-0.4059,-0.4549,-0.5026,9.4600,-0.6200,2.4800,0.0000,0.0000,0.0000,-0.5137,0.4616,0.4410,0.5731,9.5900,0.3000,1.8700,0.0000,0.0000,0.0000,0.2306,-0.4137,-0.8655,-0.1621,5.2600,0.9000,-8.2200,0.0000,0.0000,0.0000
119530,0,0,1,-5.5371,-0.2637,-2.6587,2.5928,0.0073,-0.0092,-7.3828,-2.4170,-0.0287,9.8833,0.0000,1.0681,-1.9226,-2.5635,-0.0287,9.8833,0.0000,1.0681,-1.9226,-2.5635,9.6447,-0.1772,0.7130,-0.0322,-0.0359,-0.0048,0.0813,0.6640,-0.0882,0.7381,0.5119,0.4790,-0.4804,0.5268,9.7700,-0.1300,0.8400,0.0000,0.0000,0.0000,0.6158,0.4001,-0.4993,0.4596,9.6100,0.3700,1.7700,0.0000,0.0000,0.0000,0.2315,-0.2910,-0.9278,0.0265,4.0300,-1.8100,-8.7500,0.0000,0.0000,0.0000,0.6127,-0.4060,-0.4550,-0.5026,9.5300,-0.3700,2.4900,0.0000,0.0000,0.0000,-0.5136,0.4615,0.4410,0.5731,9.5800,0.2900,1.8400,0.0000,0.0000,0.0000,0.2306,-0.4137,-0.8655,-0.1621,5.2400,0.9000,-8.2000,0.0000,0.0000,0.0000
119531,0,0,1,-5.5371,-0.2856,-2.6587,2.5928,0.0146,0.0037,-7.3828,-2.4170,-0.0096,9.8234,0.0527,1.0376,-1.7090,-2.4414,-0.0096,9.8234,0.0527,1.0376,-1.7090,-2.4414,9.6447,-0.1772,0.7130,-0.0322,-0.0359,-0.0048,0.0813,0.6640,-0.0882,0.7381,0.5119,0.4790,-0.4804,0.5268,9.7700,-0.1300,0.8400,0.0000,0.0000,0.0000,0.6158,0.4001,-0.4993,0.4596,9.6300,0.3600,1.7500,0.0000,0.0000,0.0000,0.2315,-0.2911,-0.9278,0.0265,4.0300,-1.7900,-8.7400,0.0000,0.0000,0.0000,0.6126,-0.4060,-0.4550,-0.5027,9.4500,-0.4900,2.3900,0.0000,0.0000,0.0000,-0.5136,0.4615,0.4410,0.5731,9.5800,0.2900,1.8400,0.0000,0.0000,0.0000,0.2306,-0.4137,-0.8655,-0.1621,5.2200,0.9000,-8.2100,0.0000,0.0000,0.0000
119532,0,0,1,-5.5371,-0.2856,-2.6587,2.5928,0.0110,0.0183,-7.3828,-2.4170,-0.0120,9.8402,0.0144,0.9460,-1.8005,-2.6550,-0.0120,9.8402,0.0144,0.9460,-1.8005,-2.6550,9.6447,-0.1772,0.7130,-0.0322,-0.0359,-0.0048,0.0813,0.6640,-0.0882,0.7381,0.5118,0.4790,-0.4804,0.5269,9.7700,-0.1400,0.8100,0.0000,0.0000,0.0000,0.6158,0.4001,-0.4993,0.4596,9.6500,0.3700,1.7500,0.0000,0.0000,0.0000,0.2315,-0.2911,-0.9278,0.0265,4.0200,-1.7700,-8.7500,0.0000,0.0000,0.0000,0.6125,-0.4061,-0.4550,-0.5028,9.5100,-0.3200,2.3900,0.0000,0.0000,0.0000,-0.5136,0.4615,0.4410,0.5732,9.5800,0.3100,1.8000,0.0000,0.0000,0.0000,0.2306,-0.4137,-0.8655,-0.1621,5.2300,0.9000,-8.2200,0.0000,0.0000,0.0000
119533,0,0,1,-5.5371,-0.2856,-2.6587,2.5928,0.0110,0.0165,-7.3828,-2.4170,0.0120,9.8785,-0.0431,0.7019,-1.7090,-2.7466,0.0120,9.8785,-0.0431,0.7019,-1.7090,-2.7466,9.7789,-0.4066,1.0982,-0.0302,-0.0454,-0.0055,0.0813,0.6641,-0.0883,0.7380,0.5118,0.4790,-0.4804,0.5269,9.8000,-0.1300,0.8000,0.0000,0.0000,0.0000,0.6157,0.4001,-0.4993,0.4596,9.6500,0.3700,1.7500,0.0000,0.0000,0.0000,0.2315,-0.2911,-0.9278,0.0265,4.0300,-1.7700,-8.7400,0.0000,0.0000,0.0000,0.6125,-0.4061,-0.4550,-0.5028,9.5100,-0.3200,2.3900,0.0000,0.0000,0.0000,-0.5136,0.4615,0.4410,0.5732,9.5600,0.3200,1.7500,0.0000,0.0000,0.0000,0.2306,-0.4137,-0.8655,-0.1622,5.2000,0.8900,-8.2300,0.0000,0.0000,0.0000
119534,0,0,1,-5.5151,-0.2637,-2.6587,2.5928,-0.0128,-0.0055,-7.3828,-2.4170,0.0120,9.8186,-0.0144,0.7935,-1.9531,-2.4719,0.0120,9.8186,-0.0144,0.7935,-1.9531,-2.4719,9.7839,-0.0501,0.9161,-0.0348,-0.0425,-0.0029,0.0813,0.6641,-0.0883,0.7380,0.5118,0.4790,-0.4804,0.5269,9.8000,-0.1700,0.7900,0.0000,0.0000,0.0000,0.6157,0.4001,-0.4993,0.4596,9.6500,0.3700,1.7500,0.0000,0.0000,0.0000,0.2315,-0.2911,-0.9278,0.0265,4.0600,-1.7900,-8.7200,0.0000,0.0000,0.0000,0.6124,-0.4061,-0.4550,-0.5028,9.4100,-0.4300,2.4200,0.0000,0.0000,0.0000,-0.5136,0.4614,0.4411,0.5732,9.5800,0.3100,1.7400,0.0000,0.0000,0.0000,0.2306,-0.4137,-0.8655,-0.1622,5.2000,0.8900,-8.2300,0.0000,0.0000,0.0000
119535,0,0,1,-5.5371,-0.2637,-2.6807,2.5928,-0.0128,0.0055,-7.3828,-2.4170,0.0000,9.7827,0.0072,0.8240,-1.8616,-2.3499,0.0000,9.7827,0.0072,0.8240,-1.8616,-2.3499,9.8208,-0.2266,1.2186,-0.0173,-0.0409,-0.0030,0.0814,0.6641,-0.0883,0.7379,0.5117,0.4791,-0.4804,0.5269,9.7600,-0.1700,0.7700,0.0000,0.0000,0.0000,0.6157,0.4001,-0.4994,0.4596,9.6700,0.3300,1.7500,0.0000,0.0000,0.0000,0.2315,-0.2911,-0.9278,0.0265,4.0600,-1.7900,-8.7200,0.0000,0.0000,0.0000,0.6123,-0.4061,-0.4550,-0.5029,9.4300,-0.4200,2.4300,0.0000,0.0000,0.0000,-0.5136,0.4614,0.4411,0.5732,9.6200,0.3200,1.7700,0.0000,0.0000,0.0000,0.2306,-0.4137,-0.8656,-0.1622,5.2400,0.8700,-8.2300,0.0000,0.0000,0.0000
119536,0,0,1,-5.5371,-0.2637,-2.6807,2.5928,-0.0037,0.0165,-7.3828,-2.3950,-0.0311,9.7923,-0.0096,0.6104,-1.8616,-2.5330,-0.0311,9.7923,-0.0096,0.6104,-1.8616,-2.5330,9.8208,-0.2266,1.2186,-0.0173,-0.0409,-0.0030,0.0814,0.6641,-0.0883,0.7379,0.5117,0.4791,-0.4804,0.5269,9.7600,-0.1700,0.7700,0.0000,0.0000,0.0000,0.6157,0.4001,-0.4994,0.4597,9.6500,0.3200,1.7100,0.0000,0.0000,0.0000,0.2315,-0.2911,-0.9278,0.0265,4.0600,-1.7900,-8.7200,0.0000,0.0000,0.0000,0.6123,-0.4062,-0.4550,-0.5029,9.4900,-0.3100,2.4300,0.0000,0.0000,0.0000,-0.5136,0.4614,0.4411,0.5732,9.6200,0.3200,1.7700,0.0000,0.0000,0.0000,0.2306,-0.4137,-0.8656,-0.1622,5.2200,0.8500,-8.2400,0.0000,0.0000,0.0000
119537,0,0,1,-5.5371,-0.2637,-2.6807,2.5928,-0.0146,0.0128,-7.3828,-2.3950,0.0215,9.7971,-0.0431,0.8240,-1.8616,-2.3804,0.0215,9.7971,-0.0431,0.8240,-1.8616,-2.3804,9.8208,-0.2266,1.2186,-0.0173,-0.0409,-0.0030,0.0814,0.6641,-0.0883,0.7379,0.5117,0.4791,-0.4804,0.5269,9.7700,-0.1300,0.7500,0.0000,0.0000,0.0000,0.6157,0.4001,-0.4994,0.4597,9.6400,0.3200,1.7400,0.0000,0.0000,0.0000,0.2315,-0.2911,-0.9278,0.0265,4.0500,-1.7800,-8.7400,0.0000,0.0000,0.0000,0.6122,-0.4062,-0.4550,-0.5030,9.3900,-0.4400,2.4500,0.0000,0.0000,0.0000,-0.5135,0.4614,0.4411,0.5733,9.6000,0.3500,1.8000,0.0000,0.0000,0.0000,0.2306,-0.4137,-0.8656,-0.1622,5.2100,0.8900,-8.2300,0.0000,0.0000,0.0000
119538,0,0,1,-5.5371,-0.2637,-2.6807,2.5928,0.0000,0.0092,-7.3828,-2.3950,0.0000,9.8258,-0.0287,0.5188,-2.0752,-2.5635,0.0000,9.8258,-0.0287,0.5188,-2.0752,-2.5635,9.8053,-0.0918,1.0700,-0.0290,-0.0440,-0.0025,0.0814,0.6642,-0.0884,0.7378,0.5117,0.4791,-0.4804,0.5269,9.7900,-0.1700,0.7800,0.0000,0.0000,0.0000,0.6157,0.4000,-0.4994,0.4597,9.6400,0.3000,1.7400,0.0000,0.0000,0.0000,0.2315,-0.2911,-0.9278,0.0265,4.0400,-1.7800,-8.7400,0.0000,0.0000,0.0000,0.6122,-0.4062,-0.4550,-0.5030,9.3900,-0.4400,2.4500,0.0000,0.0000,0.0000,-0.5135,0.4614,0.4411,0.5733,9.5900,0.3600,1.7900,0.0000,0.0000,0.0000,0.2306,-0.4137,-0.8656,-0.1622,5.2200,0.8900,-8.2500,0.0000,0.0000,0.0000
119539,0,0,1,-5.5371,-0.2637,-2.6807,2.5928,0.0000,-0.0110,-7.3828,-2.3950,0.0048,9.8306,-0.0335,0.7324,-1.9226,-2.5940,0.0048,9.8306,-0.0335,0.7324,-1.9226,-2.5940,9.8053,-0.0918,1.0700,-0.0290,-0.0440,-0.0025,0.0814,0.6642,-0.0884,0.7378,0.5116,0.4791,-0.4804,0.5269,9.7900,-0.1700,0.7700,0.0000,0.0000,0.0000,0.6157,0.4000,-0.4994,0.4597,9.6400,0.3000,1.7400,0.0000,0.0000,0.0000,0.2315,-0.2911,-0.9278,0.0265,4.0400,-1.7800,-8.7400,0.0000,0.0000,0.0000,0.6121,-0.4063,-0.4550,-0.5031,9.4800,-0.3200,2.4300,0.0000,0.0000,0.0000,-0.5135,0.4614,0.4411,0.5733,9.6200,0.3300,1.8000,0.0000,0.0000,0.0000,0.2306,-0.4137,-0.8656,-0.1622,5.2200,0.8900,-8.2500,0.0000,0.0000,0.0000
119540,0,0,1,-5.5371,-0.2856,-2.6807,2.5708,0.0037,-0.0183,-7.3828,-2.3950,-0.0120,9.7683,-0.0120,0.7019,-1.8921,-2.5024,-0.0120,9.7683,-0.0120,0.7019,-1.8921,-2.5024,9.7221,-0.1218,1.0464,-0.0316,-0.0458,0.0046,0.0814,0.6643,-0.0884,0.7377,0.5116,0.4792,-0.4804,0.5270,9.7600,-0.1700,0.7700,0.0000,0.0000,0.0000,0.6157,0.4000,-0.4994,0.4597,9.6200,0.3100,1.7300,0.0000,0.0000,0.0000,0.2314,-0.2911,-0.9278,0.0265,4.0200,-1.7900,-8.7400,0.0000,0.0000,0.0000,0.6121,-0.4063,-0.4550,-0.5031,9.4800,-0.3200,2.4300,0.0000,0.0000,0.0000,-0.5135,0.4613,0.4411,0.5734,9.6300,0.3400,1.8200,0.0000,0.0000,0.0000,0.2306,-0.4137,-0.8656,-0.1622,5.2100,0.8800,-8.2500,0.0000,0.0000,0.0000
119541,0,0,1,-5.5151,-0.2637,-2.6807,2.5708,0.0128,0.0055,-7.3828,-2.3950,-0.0335,9.8090,-0.0215,0.6104,-2.0447,-2.5940,-0.0335,9.8090,-0.0215,0.6104,-2.0447,-2.5940,9.7221,-0.1218,1.0464,-0.0316,-0.0458,0.0046,0.0814,0.6643,-0.0884,0.7377,0.5116,0.4792,-0.4804,0.5270,9.7600,-0.1700,0.7700,0.0000,0.0000,0.0000,0.6157,0.4000,-0.4994,0.4597,9.6000,0.3000,1.7200,0.0000,0.0000,0.0000,0.2314,-0.2911,-0.9278,0.0265,4.0200,-1.7900,-8.7400,0.0000,0.0000,0.0000,0.6119,-0.4064,-0.4550,-0.5032,9.4600,-0.3000,2.4500,0.0000,0.0000,0.0000,-0.5135,0.4613,0.4411,0.5734,9.6300,0.3400,1.8200,0.0000,0.0000,0.0000,0.2306,-0.4137,-0.8656,-0.1622,5.2200,0.8800,-8.2400,0.0000,0.0000,0.0000
119542,0,0,1,-5.5151,-0.2637,-2.6807,2.5708,-0.0055,-0.0183,-7.3828,-2.3950,-0.0239,9.7731,-0.0622,0.7019,-2.0752,-2.5024,-0.0239,9.7731,-0.0622,0.7019,-2.0752,-2.5024,9.7221,-0.1218,1.0464,-0.0316,-0.0458,0.0046,0.0814,0.6643,-0.0884,0.7377,0.5116,0.4792,-0.4804,0.5270,9.7500,-0.1900,0.7500,0.0000,0.0000,0.0000,0.6156,0.4000,-0.4995,0.4597,9.6200,0.2500,1.7400,0.0000,0.0000,0.0000,0.2314,-0.2911,-0.9278,0.0265,4.0200,-1.7700,-8.7300,0.0000,0.0000,0.0000,0.6119,-0.4064,-0.4550,-0.5032,9.4600,-0.3000,2.4500,0.0000,0.0000,0.0000,-0.5134,0.4613,0.4411,0.5734,9.6000,0.3500,1.8300,0.0000,0.0000,0.0000,0.2306,-0.4137,-0.8656,-0.1622,5.2100,0.9100,-8.2600,0.0000,0.0000,0.0000
119543,0,0,1,-5.5371,-0.2637,-2.7026,2.5708,-0.0073,-0.0348,-7.3608,-2.3950,-0.0072,9.8067,0.0144,0.6409,-2.1667,-2.5635,-0.0072,9.8067,0.0144,0.6409,-2.1667,-2.5635,9.7521,-0.2436,0.9913,-0.0370,-0.0457,-0.0051,0.0815,0.6644,-0.0885,0.7377,0.5115,0.4792,-0.4804,0.5270,9.7600,-0.2000,0.7600,0.0000,0.0000,0.0000,0.6156,0.4000,-0.4995,0.4597,9.6200,0.2500,1.7400,0.0000,0.0000,0.0000,0.2314,-0.2911,-0.9278,0.0265,4.0000,-1.7800,-8.7400,0.0000,0.0000,0.0000,0.6119,-0.4064,-0.4550,-0.5032,9.4100,-0.3400,2.4300,0.0000,0.0000,0.0000,-0.5134,0.4613,0.4412,0.5734,9.6100,0.3900,1.8200,0.0000,0.0000,0.0000,0.0000,0.0000,0.0000,0.0000,0.0000,0.0000,0.0000,0.0000,0.0000,0.0000
119544,0,0,1,-5.5371,-0.2637,-2.7026,2.5708,-0.0183,-0.0201,-7.3608,-2.3950,-0.0622,9.8162,-0.0215,0.5493,-2.1362,-2.5024,-0.0622,9.8162,-0.0215,0.5493,-2.1362,-2.5024,9.7521,-0.2436,0.9913,-0.0370,-0.0457,-0.0051,0.0815,0.6644,-0.0885,0.7377,0.5115,0.4793,-0.4804,0.5270,9.7200,-0.2200,0.7400,0.0000,0.0000,0.0000,0.6156,0.4000,-0.4995,0.4597,9.6100,0.2500,1.7400,0.0000,0.0000,0.0000,0.2314,-0.2911,-0.9278,0.0265,4.0100,-1.7900,-8.7300,0.0000,0.0000,0.0000,0.6118,-0.4065,-0.4550,-0.5033,9.4300,-0.3300,2.4700,0.0000,0.0000,0.0000,-0.5134,0.4613,0.4412,0.5734,9.6400,0.4100,1.8200,0.0000,0.0000,0.0000,0.2306,-0.4137,-0.8656,-0.1622,5.2100,0.8800,-8.2500,0.0000,0.0000,0.0000
119545,0,0,1,-5.5371,-0.2637,-2.7026,2.5708,0.0073,-0.0183,-7.3608,-2.3950,-0.0694,9.8234,0.0120,0.4883,-2.0752,-2.5940,-0.0694,9.8234,0.0120,0.4883,-2.0752,-2.5940,9.7501,-0.2873,0.9945,-0.0296,-0.0519,0.0010,0.0815,0.6645,-0.0886,0.7376,0.5114,0.4793,-0.4804,0.5270,9.7300,-0.2200,0.7300,0.0000,0.0000,0.0000,0.6156,0.4000,-0.4995,0.4597,9.6300,0.2100,1.7300,0.0000,0.0000,0.0000,0.2314,-0.2911,-0.9278,0.0265,4.0100,-1.7900,-8.7300,0.0000,0.0000,0.0000,0.6117,-0.4065,-0.4550,-0.5033,9.4000,-0.2500,2.3900,0.0000,0.0000,0.0000,-0.5134,0.4613,0.4412,0.5735,9.6400,0.4100,1.8300,0.0000,0.0000,0.0000,0.2306,-0.4137,-0.8656,-0.1622,5.2100,0.8800,-8.2500,0.0000,0.0000,0.0000
119546,0,0,1,-5.5371,-0.2637,-2.7026,2.5708,-0.0055,0.0128,-7.3608,-2.3950,-0.0287,9.8857,-0.0239,0.7629,-2.3499,-2.5940,-0.0287,9.8857,-0.0239,0.7629,-2.3499,-2.5940,9.7501,-0.2873,0.9945,-0.0296,-0.0519,0.0010,0.0815,0.6645,-0.0886,0.7376,0.5114,0.4793,-0.4804,0.5270,9.7300,-0.2200,0.7300,0.0000,0.0000,0.0000,0.6156,0.4000,-0.4995,0.4597,9.6100,0.2000,1.7800,0.0000,0.0000,0.0000,0.2314,-0.2911,-0.9278,0.0265,4.0100,-1.8000,-8.7400,0.0000,0.0000,0.0000,0.6117,-0.4065,-0.4550,-0.5033,9.2800,-0.1300,2.3300,0.0000,0.0000,0.0000,-0.5134,0.4613,0.4412,0.5735,9.6400,0.4100,1.8300,0.0000,0.0000,0.0000,0.2306,-0.4137,-0.8656,-0.1622,5.2000,0.9000,-8.2600,0.0000,0.0000,0.0000
119547,0,0,1,-5.5151,-0.2417,-2.7026,2.5488,0.0000,-0.0220,-7.3608,-2.3950,-0.1006,9.8210,-0.0048,0.5798,-2.3804,-2.2583,-0.1006,9.8210,-0.0048,0.5798,-2.3804,-2.2583,9.7501,-0.2873,0.9945,-0.0296,-0.0519,0.0010,0.0815,0.6645,-0.0886,0.7376,0.5114,0.4793,-0.4804,0.5270,9.7300,-0.2100,0.7300,0.0000,0.0000,0.0000,0.6156,0.3999,-0.4995,0.4597,9.6200,0.2200,1.7900,0.0000,0.0000,0.0000,0.2314,-0.2911,-0.9278,0.0265,4.0000,-1.8100,-8.7500,0.0000,0.0000,0.0000,0.6116,-0.4065,-0.4550,-0.5034,9.3600,-0.1100,2.3200,0.0000,0.0000,0.0000,-0.5133,0.4612,0.4412,0.5735,9.6400,0.4300,1.8600,0.0000,0.0000,0.0000,0.2305,-0.4137,-0.8656,-0.1622,5.1900,0.8800,-8.2500,0.0000,0.0000,0.0000
119548,0,0,1,-5.5151,-0.2637,-2.7026,2.5488,-0.0055,-0.0110,-7.3608,-2.3950,-0.0670,9.8450,-0.0335,0.6104,-2.3804,-2.2583,-0.0670,9.8450,-0.0335,0.6104,-2.3804,-2.2583,9.7882,-0.2677,1.0184,-0.0309,-0.0453,0.0008,0.0816,0.6645,-0.0886,0.7375,0.5114,0.4793,-0.4804,0.5271,9.7100,-0.2400,0.7500,0.0000,0.0000,0.0000,0.6156,0.3999,-0.4995,0.4597,9.6200,0.2200,1.7900,0.0000,0.0000,0.0000,0.2314,-0.2911,-0.9278,0.0265,4.0000,-1.8000,-8.7300,0.0000,0.0000,0.0000,0.6116,-0.4065,-0.4550,-0.5034,9.3600,-0.1100,2.3200,0.0000,0.0000,0.0000,-0.5133,0.4612,0.4412,0.5735,9.6500,0.4400,1.8700,0.0000,0.0000,0.0000,0.2305,-0.4137,-0.8656,-0.1622,5.1900,0.8800,-8.2500,0.0000,0.0000,0.0000
119549,0,0,1,-5.5151,-0.2637,-2.7026,2.5488,0.0018,0.0128,-7.3608,-2.3950,-0.0910,9.7779,0.0263,0.7019,-2.4109,-2.4414,-0.0910,9.7779,0.0263,0.7019,-2.4109,-2.4414,9.7882,-0.2677,1.0184,-0.0309,-0.0453,0.0008,0.0816,0.6645,-0.0886,0.7375,0.5113,0.4793,-0.4804,0.5271,9.7200,-0.2300,0.7600,0.0000,0.0000,0.0000,0.6156,0.3999,-0.4995,0.4598,9.6200,0.2300,1.7800,0.0000,0.0000,0.0000,0.2314,-0.2911,-0.9278,0.0265,4.0400,-1.7900,-8.7300,0.0000,0.0000,0.0000,0.6116,-0.4065,-0.4550,-0.5034,9.4800,-0.3000,2.4500,0.0000,0.0000,0.0000,-0.5133,0.4612,0.4412,0.5735,9.6500,0.4300,1.8600,0.0000,0.0000,0.0000,0.2305,-0.4137,-0.8656,-0.1622,5.1900,0.8700,-8.2300,0.0000,0.0000,0.0000
119550,0,0,1,-5.5371,-0.2637,-2.7246,2.5488,0.0110,-0.0092,-7.3608,-2.3950,-0.1173,9.7636,-0.0383,0.5188,-2.5940,-2.7771,-0.1173,9.7636,-0.0383,0.5188,-2.5940,-2.7771,9.7504,-0.2009,1.0131,-0.0386,-0.0483,-0.0002,0.0817,0.6646,-0.0887,0.7374,0.5113,0.4794,-0.4804,0.5271,9.7600,-0.2400,0.7600,0.0000,0.0000,0.0000,0.6156,0.3999,-0.4995,0.4598,9.6300,0.2200,1.7400,0.0000,0.0000,0.0000,0.2314,-0.2911,-0.9278,0.0265,4.0400,-1.7900,-8.7300,0.0000,0.0000,0.0000,0.6116,-0.4066,-0.4550,-0.5034,9.5500,-0.4900,2.6100,0.0000,0.0000,0.0000,-0.5133,0.4612,0.4413,0.5736,9.6500,0.4200,1.8600,0.0000,0.0000,0.0000,0.2305,-0.4137,-0.8656,-0.1622,5.2100,0.8900,-8.2500,0.0000,0.0000,0.0000
119551,0,0,1,-5.5371,-0.2637,-2.7246,2.5488,-0.0073,0.0146,-7.3608,-2.3950,-0.0527,9.7875,-0.0144,0.5493,-2.1667,-2.4414,-0.0527,9.7875,-0.0144,0.5493,-2.1667,-2.4414,9.7504,-0.2009,1.0131,-0.0386,-0.0483,-0.0002,0.0817,0.6646,-0.0887,0.7374,0.5113,0.4794,-0.4804,0.5271,9.7600,-0.2400,0.7600,0.0000,0.0000,0.0000,0.6156,0.3999,-0.4996,0.4598,9.6400,0.2300,1.7400,0.0000,0.0000,0.0000,0.2314,-0.2911,-0.9278,0.0265,4.0400,-1.7800,-8.7400,0.0000,0.0000,0.0000,0.6115,-0.4066,-0.4551,-0.5034,9.5400,-0.5900,2.6700,0.0000,0.0000,0.0000,-0.5133,0.4612,0.4413,0.5736,9.6500,0.4200,1.8600,0.0000,0.0000,0.0000,0.2305,-0.4137,-0.8656,-0.1622,5.2000,0.8800,-8.2400,0.0000,0.0000,0.0000
119552,0,0,1,-5.5371,-0.2637,-2.7246,2.5488,-0.0092,-0.0275,-7.3608,-2.3950,-0.0431,9.8521,0.0072,0.5798,-2.3499,-2.6245,-0.0431,9.8521,0.0072,0.5798,-2.3499,-2.6245,9.7504,-0.2009,1.0131,-0.0386,-0.0483,-0.0002,0.0817,0.6646,-0.0887,0.7374,0.5112,0.4794,-0.4804,0.5271,9.7400,-0.1800,0.7900,0.0000,0.0000,0.0000,0.6156,0.3999,-0.4996,0.4598,9.6500,0.2900,1.7500,0.0000,0.0000,0.0000,0.2314,-0.2911,-0.9278,0.0265,4.0500,-1.7700,-8.7400,0.0000,0.0000,0.0000,0.6115,-0.4066,-0.4551,-0.5034,9.5000,-0.4900,2.6300,0.0000,0.0000,0.0000,-0.5132,0.4611,0.4413,0.5736,9.6100,0.3900,1.8500,0.0000,0.0000,0.0000,0.2305,-0.4137,-0.8656,-0.1622,5.2100,0.8900,-8.2400,0.0000,0.0000,0.0000
119553,0,0,1,-5.5151,-0.2637,-2.7246,2.5269,-0.0146,0.0128,-7.3608,-2.3950,-0.0503,9.8330,-0.0024,0.6104,-2.2278,-2.7161,-0.0503,9.8330,-0.0024,0.6104,-2.2278,-2.7161,9.7216,-0.1952,0.8911,-0.0398,-0.0554,0.0025,0.0817,0.6647,-0.0888,0.7373,0.5112,0.4794,-0.4804,0.5271,9.7400,-0.1800,0.8300,0.0000,0.0000,0.0000,0.6156,0.3999,-0.4996,0.4598,9.6500,0.2900,1.7500,0.0000,0.0000,0.0000,0.2314,-0.2911,-0.9278,0.0265,4.0500,-1.7800,-8.7300,0.0000,0.0000,0.0000,0.6115,-0.4066,-0.4551,-0.5034,9.5000,-0.4900,2.6300,0.0000,0.0000,0.0000,-0.5132,0.4611,0.4413,0.5736,9.6300,0.3700,1.8600,0.0000,0.0000,0.0000,0.2305,-0.4137,-0.8656,-0.1622,5.2200,0.9100,-8.2300,0.0000,0.0000,0.0000
119554,0,0,1,-5.5151,-0.2637,-2.7246,2.5269,0.0037,-0.0073,-7.3608,-2.3950,0.0311,9.8186,0.0024,0.7935,-2.1667,-3.0518,0.0311,9.8186,0.0024,0.7935,-2.1667,-3.0518,9.7216,-0.1952,0.8911,-0.0398,-0.0554,0.0025,0.0817,0.6647,-0.0888,0.7373,0.5111,0.4795,-0.4804,0.5271,9.7800,-0.2400,0.8300,0.0000,0.0000,0.0000,0.6156,0.3998,-0.4996,0.4598,9.6200,0.3400,1.7900,0.0000,0.0000,0.0000,0.2314,-0.2911,-0.9278,0.0265,4.0500,-1.7900,-8.7400,0.0000,0.0000,0.0000,0.6114,-0.4067,-0.4551,-0.5034,9.4600,-0.6000,2.6300,0.0000,0.0000,0.0000,-0.5132,0.4611,0.4413,0.5736,9.6100,0.3500,1.8400,0.0000,0.0000,0.0000,0.2305,-0.4137,-0.8656,-0.1622,5.2400,0.8900,-8.2400,0.0000,0.0000,0.0000
119555,0,0,1,-5.5151,-0.2637,-2.7246,2.5269,0.0238,-0.0018,-7.3608,-2.3950,0.0000,9.7683,0.0287,0.5493,-2.1667,-2.7466,0.0000,9.7683,0.0287,0.5493,-2.1667,-2.7466,9.6650,-0.3668,0.9260,-0.0418,-0.0512,-0.0028,0.0818,0.6648,-0.0889,0.7372,0.5111,0.4795,-0.4804,0.5271,9.7700,-0.2200,0.8400,0.0000,0.0000,0.0000,0.6156,0.3998,-0.4996,0.4598,9.6200,0.3500,1.8000,0.0000,0.0000,0.0000,0.2314,-0.2911,-0.9278,0.0265,4.0500,-1.7900,-8.7400,0.0000,0.0000,0.0000,0.6114,-0.4067,-0.4551,-0.5035,9.5400,-0.4500,2.4500,0.0000,0.0000,0.0000,-0.5132,0.4611,0.4414,0.5736,9.6300,0.3300,1.8500,0.0000,0.0000,0.0000,0.2305,-0.4137,-0.8656,-0.1622,5.2400,0.8900,-8.2400,0.0000,0.0000,0.0000
119556,0,0,1,-5.5151,-0.2637,-2.7246,2.5269,-0.0037,0.0110,-7.3608,-2.3950,-0.0048,9.7779,0.0000,0.5188,-2.1057,-2.7771,-0.0048,9.7779,0.0000,0.5188,-2.1057,-2.7771,9.6650,-0.3668,0.9260,-0.0418,-0.0512,-0.0028,0.0818,0.6648,-0.0889,0.7372,0.5111,0.4795,-0.4804,0.5271,9.7700,-0.2200,0.8400,0.0000,0.0000,0.0000,0.6156,0.3998,-0.4997,0.4598,9.6200,0.3200,1.8100,0.0000,0.0000,0.0000,0.2314,-0.2911,-0.9278,0.0265,4.0400,-1.8200,-8.7300,0.0000,0.0000,0.0000,0.6113,-0.4068,-0.4551,-0.5035,9.4900,-0.5900,2.4200,0.0000,0.0000,0.0000,-0.5132,0.4611,0.4414,0.5736,9.6300,0.3300,1.8500,0.0000,0.0000,0.0000,0.2305,-0.4137,-0.8656,-0.1622,5.2400,0.8900,-8.2200,0.0000,0.0000,0.0000
119557,0,0,1,-5.5151,-0.2637,-2.7246,2.5269,0.0073,-0.0238,-7.3608,-2.3950,0.0072,9.8258,-0.0168,0.5188,-2.0447,-2.9602,0.0072,9.8258,-0.0168,0.5188,-2.0447,-2.9602,9.6650,-0.3668,0.9260,-0.0418,-0.0512,-0.0028,0.0818,0.6648,-0.0889,0.7372,0.5110,0.4795,-0.4804,0.5272,9.7500,-0.2000,0.8100,0.0000,0.0000,0.0000,0.6156,0.3998,-0.4997,0.4598,9.6500,0.3400,1.7600,0.0000,0.0000,0.0000,0.2314,-0.2911,-0.9278,0.0265,4.0300,-1.8000,-8.7300,0.0000,0.0000,0.0000,0.6112,-0.4069,-0.4550,-0.5036,9.5200,-0.3900,2.4700,0.0000,0.0000,0.0000,-0.5132,0.4610,0.4414,0.5736,9.6400,0.3200,1.8900,0.0000,0.0000,0.0000,0.2305,-0.4137,-0.8656,-0.1623,5.2400,0.8900,-8.2200,0.0000,0.0000,0.0000
119558,0,0,1,-5.5151,-0.2637,-2.7246,2.5269,-0.0037,-0.0110,-7.3608,-2.3950,-0.0527,9.8019,-0.0934,0.7019,-1.8921,-2.9907,-0.0527,9.8019,-0.0934,0.7019,-1.8921,-2.9907,9.7772,-0.3497,0.9833,-0.0380,-0.0487,0.0014,0.0818,0.6649,-0.0890,0.7371,0.5110,0.4796,-0.4804,0.5272,9.7800,-0.2000,0.7900,0.0000,0.0000,0.0000,0.6156,0.3998,-0.4997,0.4598,9.6500,0.3400,1.7600,0.0000,0.0000,0.0000,0.2314,-0.2911,-0.9278,0.0265,4.0300,-1.8200,-8.7300,0.0000,0.0000,0.0000,0.6112,-0.4069,-0.4550,-0.5036,9.5200,-0.3900,2.4700,0.0000,0.0000,0.0000,-0.5132,0.4610,0.4414,0.5737,9.6200,0.2600,1.8800,0.0000,0.0000,0.0000,0.2305,-0.4137,-0.8656,-0.1623,5.2500,0.8800,-8.2200,0.0000,0.0000,0.0000
119559,0,0,1,-5.5151,-0.2637,-2.7246,2.5269,-0.0256,0.0275,-7.3608,-2.3950,-0.0072,9.8019,-0.0407,0.5493,-1.8616,-2.9297,-0.0072,9.8019,-0.0407,0.5493,-1.8616,-2.9297,9.7772,-0.3497,0.9833,-0.0380,-0.0487,0.0014,0.0818,0.6649,-0.0890,0.7371,0.5109,0.4796,-0.4804,0.5272,9.7700,-0.2300,0.7800,0.0000,0.0000,0.0000,0.6156,0.3997,-0.4997,0.4598,9.6400,0.3300,1.7600,0.0000,0.0000,0.0000,0.2314,-0.2911,-0.9278,0.0265,4.0200,-1.8000,-8.7300,0.0000,0.0000,0.0000,0.6111,-0.4069,-0.4550,-0.5037,9.4700,-0.5000,2.4600,0.0000,0.0000,0.0000,-0.5131,0.4610,0.4414,0.5737,9.6100,0.2500,1.8800,0.0000,0.0000,0.0000,0.2305,-0.4137,-0.8656,-0.1623,5.2400,0.9000,-8.2300,0.0000,0.0000,0.0000
119560,0,0,1,-5.4932,-0.2417,-2.7246,2.5269,0.0055,0.0183,-7.3608,-2.3950,-0.0383,9.8330,-0.0766,0.8850,-1.9226,-3.2043,-0.0383,9.8330,-0.0766,0.8850,-1.9226,-3.2043,9.7642,-0.3410,0.9935,-0.0434,-0.0522,-0.0019,0.0819,0.6650,-0.0891,0.7370,0.5109,0.4796,-0.4804,0.5272,9.7500,-0.2500,0.7600,0.0000,0.0000,0.0000,0.6156,0.3997,-0.4997,0.4598,9.6400,0.3400,1.7600,0.0000,0.0000,0.0000,0.2314,-0.2911,-0.9278,0.0265,4.0100,-1.8000,-8.7400,0.0000,0.0000,0.0000,0.6110,-0.4070,-0.4550,-0.5037,9.5400,-0.4100,2.5400,0.0000,0.0000,0.0000,-0.5131,0.4610,0.4415,0.5737,9.5800,0.2500,1.8900,0.0000,0.0000,0.0000,0.2305,-0.4137,-0.8656,-0.1623,5.2400,0.9000,-8.2300,0.0000,0.0000,0.0000
119561,0,0,1,-5.4932,-0.2417,-2.7246,2.5269,0.0165,0.0256,-7.3389,-2.3950,-0.0575,9.8162,-0.1125,0.7324,-1.7700,-3.2043,-0.0575,9.8162,-0.1125,0.7324,-1.7700,-3.2043,9.7642,-0.3410,0.9935,-0.0434,-0.0522,-0.0019,0.0819,0.6650,-0.0891,0.7370,0.5109,0.4796,-0.4804,0.5272,9.7500,-0.2500,0.7600,0.0000,0.0000,0.0000,0.6156,0.3997,-0.4997,0.4598,9.6600,0.3600,1.7800,0.0000,0.0000,0.0000,0.2314,-0.2911,-0.9278,0.0265,4.0100,-1.8000,-8.7400,0.0000,0.0000,0.0000,0.6110,-0.4071,-0.4549,-0.5038,9.4800,-0.3900,2.5000,0.0000,0.0000,0.0000,-0.5131,0.4610,0.4415,0.5737,9.5800,0.2500,1.8900,0.0000,0.0000,0.0000,0.2305,-0.4137,-0.8656,-0.1623,5.2200,0.8800,-8.2100,0.0000,0.0000,0.0000
119562,0,0,1,-5.4932,-0.2417,-2.7246,2.5049,-0.0073,0.0110,-7.3389,-2.3950,0.0024,9.8138,-0.0551,0.5188,-1.6479,-3.2349,0.0024,9.8138,-0.0551,0.5188,-1.6479,-3.2349,9.7642,-0.3410,0.9935,-0.0434,-0.0522,-0.0019,0.0819,0.6650,-0.0891,0.7370,0.5109,0.4797,-0.4804,0.5272,9.7700,-0.3100,0.7200,0.0000,0.0000,0.0000,0.6155,0.3997,-0.4998,0.4598,9.6400,0.3600,1.7900,0.0000,0.0000,0.0000,0.2315,-0.2911,-0.9278,0.0265,4.0200,-1.8000,-8.7500,0.0000,0.0000,0.0000,0.6110,-0.4071,-0.4549,-0.5038,9.4800,-0.3900,2.5000,0.0000,0.0000,0.0000,-0.5131,0.4610,0.4415,0.5737,9.6100,0.2500,1.9200,0.0000,0.0000,0.0000,0.2305,-0.4137,-0.8656,-0.1623,5.2400,0.8900,-8.2300,0.0000,0.0000,0.0000
119563,0,0,1,-5.4932,-0.2637,-2.7246,2.5049,0.0037,-0.0110,-7.3389,-2.3950,-0.0551,9.8114,-0.0742,0.5188,-1.6479,-3.4180,-0.0551,9.8114,-0.0742,0.5188,-1.6479,-3.4180,9.7657,-0.3107,1.0074,-0.0482,-0.0513,0.0000,0.0820,0.6650,-0.0892,0.7369,0.5108,0.4797,-0.4804,0.5272,9.7200,-0.2800,0.7200,0.0000,0.0000,0.0000,0.6155,0.3997,-0.4998,0.4598,9.6500,0.3100,1.7700,0.0000,0.0000,0.0000,0.2314,-0.2911,-0.9278,0.0265,4.0400,-1.7900,-8.7400,0.0000,0.0000,0.0000,0.6109,-0.4072,-0.4549,-0.5039,9.4900,-0.4100,2.5300,-0.1000,0.0000,0.0000,-0.5130,0.4610,0.4415,0.5737,9.5900,0.2400,1.9000,0.0000,0.0000,0.0000,0.2305,-0.4137,-0.8656,-0.1623,5.2300,0.9200,-8.2200,0.0000,0.0000,0.0000
119564,0,0,1,-5.4932,-0.2637,-2.7246,2.5049,-0.0146,-0.0220,-7.3169,-2.3950,0.0000,9.8282,-0.0072,0.5798,-1.7090,-3.2654,0.0000,9.8282,-0.0072,0.5798,-1.7090,-3.2654,9.7657,-0.3107,1.0074,-0.0482,-0.0513,0.0000,0.0820,0.6650,-0.0892,0.7369,0.5108,0.4797,-0.4804,0.5273,9.7100,-0.2800,0.7100,0.0000,0.0000,0.0000,0.6155,0.3997,-0.4998,0.4598,9.6500,0.3100,1.7700,0.0000,0.0000,0.0000,0.2315,-0.2911,-0.9278,0.0265,4.0500,-1.8200,-8.7200,0.0000,0.0000,0.0000,0.6108,-0.4073,-0.4549,-0.5039,9.4600,-0.3800,2.5100,-0.1000,0.0000,0.0000,-0.5130,0.4609,0.4415,0.5738,9.5600,0.2500,1.9000,0.0000,0.0000,0.0000,0.2305,-0.4137,-0.8656,-0.1623,5.2300,0.9200,-8.2200,0.0000,0.0000,0.0000
119565,0,0,1,-5.4932,-0.2637,-2.7246,2.5049,-0.0238,-0.0018,-7.3169,-2.3950,0.0000,9.8138,-0.0192,0.6714,-1.8311,-3.3569,0.0000,9.8138,-0.0192,0.6714,-1.8311,-3.3569,9.7338,-0.2504,1.0353,-0.0479,-0.0480,-0.0004,0.0820,0.6651,-0.0893,0.7368,0.5108,0.4797,-0.4803,0.5273,9.7300,-0.2300,0.7500,0.0000,0.0000,0.0000,0.6155,0.3997,-0.4998,0.4598,9.6400,0.3100,1.7600,0.0000,0.0000,0.0000,0.2315,-0.2911,-0.9278,0.0265,4.0500,-1.8200,-8.7200,0.0000,0.0000,0.0000,0.6107,-0.4074,-0.4548,-0.5040,9.4700,-0.4100,2.5700,-0.1000,0.0000,0.0000,-0.5130,0.4609,0.4415,0.5738,9.5600,0.2500,1.9000,0.0000,0.0000,0.0000,0.2305,-0.4137,-0.8656,-0.1623,5.2400,0.9200,-8.2100,0.0000,0.0000,0.0000
119566,0,0,1,-5.4712,-0.2417,-2.7246,2.5049,0.0073,0.0128,-7.3169,-2.3950,0.0000,9.8426,-0.0335,0.6714,-1.8921,-3.4180,0.0000,9.8426,-0.0335,0.6714,-1.8921,-3.4180,9.7338,-0.2504,1.0353,-0.0479,-0.0480,-0.0004,0.0820,0.6651,-0.0893,0.7368,0.5108,0.4797,-0.4803,0.5273,9.7300,-0.2300,0.7500,0.0000,0.0000,0.0000,0.6155,0.3997,-0.4998,0.4598,9.6100,0.3400,1.7900,0.0000,0.0000,0.0000,0.2315,-0.2911,-0.9278,0.0265,4.0400,-1.7800,-8.7300,0.0000,0.0000,0.0000,0.6106,-0.4075,-0.4548,-0.5041,9.4800,-0.4000,2.5300,-0.1000,0.0000,0.0000,-0.5130,0.4609,0.4415,0.5738,9.5600,0.3000,1.8500,0.0000,0.0000,0.0000,0.2305,-0.4137,-0.8656,-0.1623,5.2500,0.9000,-8.2000,0.0000,0.0000,0.0000
119567,0,0,1,-5.4712,-0.2417,-2.7246,2.5049,0.0220,-0.0092,-7.3169,-2.3950,0.0000,9.8138,-0.0311,0.4272,-2.0142,-3.3264,0.0000,9.8138,-0.0311,0.4272,-2.0142,-3.3264,9.7338,-0.2504,1.0353,-0.0479,-0.0480,-0.0004,0.0820,0.6651,-0.0893,0.7368,0.5108,0.4797,-0.4803,0.5273,9.7500,-0.2300,0.7700,0.0000,0.0000,0.0000,0.6155,0.3996,-0.4998,0.4598,9.6000,0.3600,1.7900,0.0000,0.0000,0.0000,0.2315,-0.2911,-0.9278,0.0265,4.0600,-1.7900,-8.7300,0.0000,0.0000,0.0000,0.6106,-0.4075,-0.4548,-0.5041,9.4800,-0.4000,2.5300,-0.1000,0.0000,0.0000,-0.5130,0.4609,0.4415,0.5738,9.5500,0.3100,1.8500,0.0000,0.0000,0.0000,0.2305,-0.4137,-0.8656,-0.1623,5.2600,0.9200,-8.2100,0.0000,0.0000,0.0000
119568,0,0,1,-5.4712,-0.2417,-2.7246,2.5049,0.0055,0.0055,-7.3169,-2.3950,0.0000,9.8067,-0.0335,0.4272,-1.9836,-3.5706,0.0000,9.8067,-0.0335,0.4272,-1.9836,-3.5706,9.7160,-0.3048,1.0006,-0.0505,-0.0511,0.0005,0.0821,0.6652,-0.0894,0.7367,0.5107,0.4797,-0.4803,0.5273,9.7700,-0.1300,0.7800,0.0000,0.0000,0.0000,0.6155,0.3996,-0.4998,0.4598,9.5900,0.3700,1.7800,0.0000,0.0000,0.0000,0.2315,-0.2911,-0.9278,0.0265,4.0800,-1.8000,-8.7200,0.0000,0.0000,0.0000,0.6105,-0.4076,-0.4547,-0.5042,9.4500,-0.3200,2.5000,-0.1000,0.0000,0.0000,-0.5129,0.4609,0.4415,0.5739,9.5400,0.3400,1.8500,0.0000,0.0000,0.0000,0.2305,-0.4137,-0.8656,-0.1623,5.2300,0.8900,-8.2000,0.0000,0.0000,0.0000
119569,0,0,1,-5.4712,-0.2417,-2.7246,2.5049,-0.0055,0.0092,-7.3169,-2.3950,-0.0024,9.7923,-0.0766,0.5188,-1.9836,-3.4180,-0.0024,9.7923,-0.0766,0.5188,-1.9836,-3.4180,9.7160,-0.3048,1.0006,-0.0505,-0.0511,0.0005,0.0821,0.6652,-0.0894,0.7367,0.5107,0.4797,-0.4803,0.5273,9.7600,-0.1900,0.8200,0.0000,0.0000,0.0000,0.6155,0.3996,-0.4998,0.4598,9.5900,0.3700,1.7800,0.0000,0.0000,0.0000,0.2315,-0.2911,-0.9278,0.0265,4.0600,-1.8100,-8.7300,0.0000,0.0000,0.0000,0.6104,-0.4077,-0.4547,-0.5043,9.4700,-0.4000,2.4900,-0.1000,0.0000,0.0000,-0.5129,0.4609,0.4416,0.5739,9.5600,0.3400,1.8500,0.0000,0.0000,0.0000,0.2305,-0.4137,-0.8656,-0.1623,5.2300,0.8900,-8.2000,0.0000,0.0000,0.0000
119570,0,0,1,-5.4712,-0.2417,-2.7246,2.4829,-0.0238,0.0018,-7.3169,-2.3950,0.0096,9.8545,-0.0287,0.5188,-2.0447,-3.4485,0.0096,9.8545,-0.0287,0.5188,-2.0447,-3.4485,9.7095,-0.3059,1.0072,-0.0563,-0.0523,-0.0008,0.0822,0.6653,-0.0895,0.7366,0.5107,0.4797,-0.4803,0.5273,9.7400,-0.1400,0.8100,0.0000,0.0000,0.0000,0.6155,0.3996,-0.4998,0.4598,9.5800,0.3500,1.7600,0.0000,0.0000,0.0000,0.2315,-0.2911,-0.9278,0.0265,4.0600,-1.8100,-8.7300,0.0000,0.0000,0.0000,0.6102,-0.4077,-0.4547,-0.5044,9.4200,-0.3300,2.4400,-0.1000,0.0000,0.0000,-0.5128,0.4609,0.4416,0.5739,9.5500,0.3500,1.8200,0.0000,0.0000,0.0000,0.2305,-0.4137,-0.8656,-0.1623,5.2500,0.9100,-8.2300,0.0000,0.0000,0.0000
119571,0,0,1,-5.4712,-0.2637,-2.7246,2.4829,0.0073,0.0385,-7.2949,-2.3950,0.0192,9.8067,-0.0527,0.5188,-2.3193,-3.5706,0.0192,9.8067,-0.0527,0.5188,-2.3193,-3.5706,9.7095,-0.3059,1.0072,-0.0563,-0.0523,-0.0008,0.0822,0.6653,-0.0895,0.7366,0.5107,0.4797,-0.4803,0.5273,9.7400,-0.1400,0.8100,0.0000,0.0000,0.0000,0.6155,0.3996,-0.4999,0.4598,9.6200,0.3700,1.7300,0.0000,0.0000,0.0000,0.2315,-0.2911,-0.9278,0.0265,4.0600,-1.7800,-8.7300,0.0000,0.0000,0.0000,0.6101,-0.4078,-0.4547,-0.5045,9.3800,-0.3100,2.4500,-0.1000,0.0000,0.0000,-0.5128,0.4609,0.4416,0.5739,9.5500,0.3500,1.8200,0.0000,0.0000,0.0000,0.2304,-0.4137,-0.8656,-0.1623,5.2300,0.9000,-8.2100,0.0000,0.0000,0.0000
119572,0,0,1,-5.4492,-0.2417,-2.7246,2.4829,0.0073,0.0128,-7.2949,-2.3950,-0.0096,9.7300,-0.0622,0.5798,-2.1362,-3.6621,-0.0096,9.7300,-0.0622,0.5798,-2.1362,-3.6621,9.7095,-0.3059,1.0072,-0.0563,-0.0523,-0.0008,0.0822,0.6653,-0.0895,0.7366,0.5107,0.4797,-0.4803,0.5274,9.7900,-0.1400,0.8100,0.0000,0.0000,0.0000,0.6155,0.3996,-0.4999,0.4599,9.6100,0.3700,1.7300,0.0000,0.0000,0.0000,0.2315,-0.2911,-0.9278,0.0265,4.0600,-1.7900,-8.7400,0.0000,0.0000,0.0000,0.6100,-0.4079,-0.4546,-0.5046,9.4200,-0.3800,2.4700,-0.1000,0.0000,0.0000,-0.5128,0.4609,0.4416,0.5739,9.5600,0.3500,1.8000,0.0000,0.0000,0.0000,0.2304,-0.4137,-0.8656,-0.1623,5.2400,0.9100,-8.2100,0.0000,0.0000,0.0000
119573,0,0,1,-5.4492,-0.2417,-2.7246,2.4829,0.0110,0.0146,-7.2949,-2.3950,0.0407,9.7492,-0.0335,0.4272,-2.1973,-3.6011,0.0407,9.7492,-0.0335,0.4272,-2.1973,-3.6011,9.6977,-0.2118,1.0449,-0.0477,-0.0509,0.0014,0.0823,0.6654,-0.0896,0.7365,0.5107,0.4798,-0.4804,0.5274,9.7700,-0.1400,0.7900,0.0000,0.0000,0.0000,0.6155,0.3996,-0.4999,0.4599,9.6100,0.3700,1.7300,0.0000,0.0000,0.0000,0.2315,-0.2911,-0.9278,0.0265,4.0300,-1.7700,-8.7400,0.0000,0.0000,0.0000,0.6100,-0.4079,-0.4546,-0.5046,9.4200,-0.3800,2.4700,-0.1000,0.0000,0.0000,-0.5128,0.4609,0.4416,0.5740,9.5800,0.3600,1.7900,0.0000,0.0000,0.0000,0.2304,-0.4137,-0.8656,-0.1623,5.2300,0.9200,-8.2200,0.0000,0.0000,0.0000
119574,0,0,1,-5.4492,-0.2417,-2.7246,2.4829,-0.0128,0.0201,-7.2949,-2.3950,0.0503,9.7683,-0.0215,0.3967,-2.1973,-3.6011,0.0503,9.7683,-0.0215,0.3967,-2.1973,-3.6011,9.6977,-0.2118,1.0449,-0.0477,-0.0509,0.0014,0.0823,0.6654,-0.0896,0.7365,0.5107,0.4798,-0.4804,0.5273,9.8100,-0.1000,0.7500,0.0000,0.0000,0.0000,0.6155,0.3996,-0.4999,0.4599,9.5900,0.3500,1.7200,0.0000,0.0000,0.0000,0.2315,-0.2911,-0.9278,0.0265,4.0300,-1.7700,-8.7300,0.0000,0.0000,0.0000,0.6099,-0.4080,-0.4546,-0.5047,9.4400,-0.3300,2.4500,-0.1000,0.0000,0.0000,-0.5128,0.4609,0.4416,0.5740,9.5900,0.3500,1.7900,0.0000,0.0000,0.0000,0.2304,-0.4137,-0.8656,-0.1623,5.2300,0.9200,-8.2200,0.0000,0.0000,0.0000
119575,0,0,1,-5.4492,-0.2417,-2.7246,2.4829,0.0055,0.0201,-7.2949,-2.3950,0.0311,9.7205,-0.0383,0.5188,-2.0447,-3.6011,0.0311,9.7205,-0.0383,0.5188,-2.0447,-3.6011,9.7128,-0.1864,1.0188,-0.0566,-0.0463,-0.0020,0.0824,0.6654,-0.0897,0.7364,0.5106,0.4798,-0.4804,0.5273,9.8200,-0.1500,0.7500,0.0000,0.0000,0.0000,0.6155,0.3996,-0.4999,0.4599,9.6400,0.3300,1.7100,0.0000,0.0000,0.0000,0.2315,-0.2911,-0.9278,0.0265,4.0300,-1.7700,-8.7300,0.0000,0.0000,0.0000,0.6098,-0.4081,-0.4546,-0.5048,9.3700,-0.3500,2.4500,-0.1000,0.0000,0.0000,-0.5127,0.4609,0.4416,0.5740,9.6000,0.4100,1.8200,0.0000,0.0000,0.0000,0.2304,-0.4137,-0.8656,-0.1623,5.1900,0.9000,-8.2300,0.0000,0.0000,0.0000
119576,0,0,1,-5.4492,-0.2417,-2.7246,2.4609,-0.0018,0.0092,-7.2949,-2.3950,0.0503,9.7348,-0.0958,0.5188,-2.0447,-3.7537,0.0503,9.7348,-0.0958,0.5188,-2.0447,-3.7537,9.7128,-0.1864,1.0188,-0.0566,-0.0463,-0.0020,0.0824,0.6654,-0.0897,0.7364,0.5106,0.4798,-0.4804,0.5273,9.8200,-0.1500,0.7500,0.0000,0.0000,0.0000,0.6154,0.3995,-0.4999,0.4599,9.6400,0.2900,1.7200,0.0000,0.0000,0.0000,0.2315,-0.2911,-0.9278,0.0265,4.0500,-1.7700,-8.7300,0.0000,0.0000,0.0000,0.6097,-0.4081,-0.4545,-0.5049,9.4100,-0.3000,2.4600,-0.1000,0.0000,0.0000,-0.5127,0.4609,0.4416,0.5740,9.6000,0.4100,1.8200,0.0000,0.0000,0.0000,0.2304,-0.4137,-0.8656,-0.1623,5.2200,0.8900,-8.2500,0.0000,0.0000,0.0000
119577,0,0,1,-5.4712,-0.2637,-2.7466,2.4609,0.0055,0.0183,-7.2949,-2.3950,0.0335,9.7061,-0.0239,0.3357,-2.2583,-3.8757,0.0335,9.7061,-0.0239,0.3357,-2.2583,-3.8757,9.7128,-0.1864,1.0188,-0.0566,-0.0463,-0.0020,0.0824,0.6654,-0.0897,0.7364,0.5106,0.4798,-0.4804,0.5273,9.7600,-0.1500,0.6800,0.0000,0.0000,0.0000,0.6154,0.3995,-0.4999,0.4599,9.6300,0.3100,1.7200,0.0000,0.0000,0.0000,0.2314,-0.2911,-0.9278,0.0265,4.0600,-1.7800,-8.7400,0.0000,0.0000,0.0000,0.6096,-0.4082,-0.4545,-0.5049,9.3900,-0.3400,2.4200,-0.1000,0.0000,0.0000,-0.5127,0.4609,0.4416,0.5740,9.6100,0.4300,1.7800,0.0000,0.0000,0.0000,0.2304,-0.4137,-0.8656,-0.1623,5.2300,0.8800,-8.2500,0.0000,0.0000,0.0000
119578,0,0,1,-5.4712,-0.2637,-2.7466,2.4609,0.0073,-0.0238,-7.2949,-2.3950,0.0407,9.7157,-0.0527,0.3052,-2.0752,-3.8452,0.0407,9.7157,-0.0527,0.3052,-2.0752,-3.8452,9.7195,-0.2228,1.0096,-0.0529,-0.0483,0.0036,0.0825,0.6655,-0.0898,0.7363,0.5106,0.4798,-0.4804,0.5273,9.7500,-0.2100,0.6900,0.0000,0.0000,0.0000,0.6154,0.3995,-0.4999,0.4599,9.6300,0.3100,1.7200,0.0000,0.0000,0.0000,0.2314,-0.2911,-0.9278,0.0265,4.0400,-1.7900,-8.7500,0.0000,0.0000,0.0000,0.6096,-0.4082,-0.4545,-0.5049,9.3900,-0.3400,2.4200,-0.1000,0.0000,0.0000,-0.5127,0.4609,0.4416,0.5741,9.6200,0.4300,1.7900,0.0000,0.0000,0.0000,0.2304,-0.4137,-0.8656,-0.1622,5.2000,0.9000,-8.2400,0.0000,0.0000,0.0000
119579,0,0,1,-5.4492,-0.2417,-2.7466,2.4609,0.0055,0.0183,-7.2949,-2.3950,-0.0096,9.7300,-0.0622,0.3662,-2.1362,-4.0588,-0.0096,9.7300,-0.0622,0.3662,-2.1362,-4.0588,9.7195,-0.2228,1.0096,-0.0529,-0.0483,0.0036,0.0825,0.6655,-0.0898,0.7363,0.5106,0.4798,-0.4804,0.5273,9.6900,-0.1800,0.6700,0.0000,0.0000,0.0000,0.6154,0.3995,-0.4999,0.4599,9.6400,0.3300,1.7100,0.0000,0.0000,0.0000,0.2314,-0.2911,-0.9278,0.0265,4.0500,-1.7800,-8.7400,0.0000,0.0000,0.0000,0.6095,-0.4083,-0.4545,-0.5050,9.4300,-0.3400,2.4800,-0.1000,0.0000,0.0000,-0.5126,0.4609,0.4416,0.5741,9.6100,0.4300,1.7900,0.0000,0.0000,0.0000,0.2304,-0.4137,-0.8656,-0.1622,5.2000,0.9000,-8.2400,0.0000,0.0000,0.0000
119580,0,0,1,-5.4492,-0.2417,-2.7466,2.4609,-0.0037,0.0092,-7.2949,-2.3950,0.0192,9.7348,0.0192,0.1221,-1.8616,-4.0894,0.0192,9.7348,0.0192,0.1221,-1.8616,-4.0894,9.7213,-0.2282,1.0362,-0.0538,-0.0495,0.0040,0.0825,0.6656,-0.0899,0.7362,0.5106,0.4798,-0.4804,0.5273,9.7400,-0.1500,0.6700,0.0000,0.0000,0.0000,0.6154,0.3995,-0.5000,0.4599,9.6200,0.3100,1.7100,0.0000,0.0000,0.0000,0.2314,-0.2911,-0.9278,0.0265,4.0500,-1.7800,-8.7400,0.0000,0.0000,0.0000,0.6094,-0.4084,-0.4545,-0.5051,9.4300,-0.4000,2.4700,-0.1000,0.0000,0.0000,-0.5126,0.4608,0.4416,0.5741,9.6200,0.4200,1.7600,0.0000,0.0000,0.0000,0.2303,-0.4137,-0.8656,-0.1622,5.2200,0.8800,-8.2400,0.0000,0.0000,0.0000
119581,0,0,1,-5.4492,-0.2417,-2.7466,2.4609,-0.0201,0.0055,-7.2949,-2.3950,0.0215,9.7492,-0.0263,0.0916,-2.0142,-4.1504,0.0215,9.7492,-0.0263,0.0916,-2.0142,-4.1504,9.7213,-0.2282,1.0362,-0.0538,-0.0495,0.0040,0.0825,0.6656,-0.0899,0.7362,0.5106,0.4798,-0.4804,0.5273,9.7400,-0.1500,0.6700,0.0000,0.0000,0.0000,0.6154,0.3995,-0.5000,0.4599,9.6100,0.3200,1.7100,0.0000,0.0000,0.0000,0.2314,-0.2911,-0.9278,0.0265,4.0300,-1.7700,-8.7500,0.0000,0.0000,0.0000,0.6093,-0.4084,-0.4544,-0.5052,9.4800,-0.2700,2.4400,-0.1000,0.0000,0.0000,-0.5126,0.4608,0.4416,0.5741,9.6200,0.4200,1.7600,0.0000,0.0000,0.0000,0.2303,-0.4137,-0.8656,-0.1622,5.2400,0.9200,-8.2400,0.0000,0.0000,0.0000
119582,0,0,1,-5.4492,-0.2417,-2.7466,2.4609,-0.0110,-0.0183,-7.2949,-2.3950,0.0335,9.7444,0.0096,0.3052,-2.0447,-4.1809,0.0335,9.7444,0.0096,0.3052,-2.0447,-4.1809,9.7213,-0.2282,1.0362,-0.0538,-0.0495,0.0040,0.0825,0.6656,-0.0899,0.7362,0.5106,0.4798,-0.4804,0.5273,9.7400,-0.1900,0.7000,0.0000,0.0000,0.0000,0.6154,0.3995,-0.5000,0.4599,9.6000,0.3100,1.7100,0.0000,0.0000,0.0000,0.2314,-0.2911,-0.9278,0.0265,4.0500,-1.7700,-8.7500,0.0000,0.0000,0.0000,0.6092,-0.4085,-0.4544,-0.5052,9.4400,-0.4300,2.4500,0.0000,0.0000,0.0000,-0.5126,0.4608,0.4417,0.5741,9.6300,0.4000,1.7400,0.0000,0.0000,0.0000,0.2303,-0.4137,-0.8656,-0.1622,5.2300,0.9200,-8.2400,0.0000,0.0000,0.0000
119583,0,0,1,-5.4492,-0.2417,-2.7466,2.4390,-0.0110,-0.0055,-7.2949,-2.3950,-0.0192,9.7588,-0.0096,0.3662,-2.1667,-4.3030,-0.0192,9.7588,-0.0096,0.3662,-2.1667,-4.3030,9.7226,-0.1770,1.0005,-0.0538,-0.0539,0.0047,0.0826,0.6657,-0.0901,0.7362,0.5106,0.4798,-0.4804,0.5273,9.7500,-0.1900,0.7000,0.0000,0.0000,0.0000,0.6154,0.3995,-0.5000,0.4599,9.6000,0.3100,1.7100,0.0000,0.0000,0.0000,0.2314,-0.2911,-0.9278,0.0265,4.0600,-1.8000,-8.7500,0.0000,0.0000,0.0000,0.6092,-0.4085,-0.4544,-0.5052,9.4400,-0.4300,2.4500,0.0000,0.0000,0.0000,-0.5126,0.4608,0.4417,0.5741,9.6400,0.4200,1.7300,0.0000,0.0000,0.0000,0.2303,-0.4137,-0.8656,-0.1622,5.2200,0.9300,-8.2400,0.0000,0.0000,0.0000
119584,0,0,1,-5.4492,-0.2637,-2.7466,2.4390,0.0092,-0.0018,-7.2949,-2.3950,0.0527,9.8402,0.0072,0.2136,-1.8921,-4.1199,0.0527,9.8402,0.0072,0.2136,-1.8921,-4.1199,9.7226,-0.1770,1.0005,-0.0538,-0.0539,0.0047,0.0826,0.6657,-0.0901,0.7362,0.5106,0.4798,-0.4804,0.5273,9.7500,-0.1800,0.6900,0.0000,0.0000,0.0000,0.6154,0.3994,-0.5000,0.4599,9.6000,0.3300,1.7200,0.0000,0.0000,0.0000,0.2314,-0.2911,-0.9278,0.0265,4.0400,-1.7900,-8.7500,0.0000,0.0000,0.0000,0.6091,-0.4086,-0.4544,-0.5053,9.5200,-0.3300,2.4300,-0.1000,0.0000,0.0000,-0.5125,0.4608,0.4417,0.5742,9.6200,0.4300,1.7100,0.0000,0.0000,0.0000,0.2303,-0.4137,-0.8656,-0.1622,5.2200,0.9300,-8.2400,0.0000,0.0000,0.0000
119585,0,0,1,-5.4272,-0.2417,-2.7466,2.4390,-0.0018,0.0037,-7.2729,-2.3950,0.0215,9.7923,0.0431,0.2136,-1.8005,-4.1809,0.0215,9.7923,0.0431,0.2136,-1.8005,-4.1809,9.7245,-0.1517,0.9539,-0.0510,-0.0501,0.0045,0.0827,0.6658,-0.0902,0.7361,0.5105,0.4798,-0.4804,0.5274,9.7900,-0.2200,0.7000,0.0000,0.0000,0.0000,0.6154,0.3994,-0.5000,0.4599,9.6200,0.2900,1.7000,0.0000,0.0000,0.0000,0.2314,-0.2911,-0.9278,0.0265,4.0400,-1.7900,-8.7500,0.0000,0.0000,0.0000,0.6090,-0.4087,-0.4544,-0.5054,9.5100,-0.3900,2.4100,-0.1000,0.0000,0.0000,-0.5125,0.4608,0.4417,0.5742,9.6200,0.4300,1.7100,0.0000,0.0000,0.0000,0.2303,-0.4137,-0.8657,-0.1622,5.2100,0.9100,-8.2400,0.0000,0.0000,0.0000
119586,0,0,1,-5.4272,-0.2417,-2.7466,2.4390,-0.0165,0.0037,-7.2729,-2.3950,0.0335,9.8258,0.0144,0.2441,-2.1667,-4.3640,0.0335,9.8258,0.0144,0.2441,-2.1667,-4.3640,9.7245,-0.1517,0.9539,-0.0510,-0.0501,0.0045,0.0827,0.6658,-0.0902,0.7361,0.5105,0.4798,-0.4804,0.5274,9.7900,-0.2200,0.7000,0.0000,0.0000,0.0000,0.6154,0.3994,-0.5000,0.4600,9.6300,0.2800,1.7300,0.0000,0.0000,0.0000,0.2314,-0.2911,-0.9278,0.0265,4.0400,-1.8000,-8.7500,0.0000,0.0000,0.0000,0.6089,-0.4087,-0.4544,-0.5054,9.5200,-0.3000,2.4200,0.0000,0.0000,0.0000,-0.5125,0.4608,0.4417,0.5742,9.6200,0.4300,1.7100,0.0000,0.0000,0.0000,0.2303,-0.4137,-0.8657,-0.1622,5.1800,0.9100,-8.2300,0.0000,0.0000,0.0000
119587,0,0,1,-5.4272,-0.2417,-2.7466,2.4390,0.0220,0.0110,-7.2729,-2.3950,0.0239,9.8258,0.0215,0.1831,-2.0752,-4.1504,0.0239,9.8258,0.0215,0.1831,-2.0752,-4.1504,9.7245,-0.1517,0.9539,-0.0510,-0.0501,0.0045,0.0827,0.6658,-0.0902,0.7361,0.5105,0.4799,-0.4804,0.5274,9.7600,-0.2400,0.6700,0.0000,0.0000,0.0000,0.6154,0.3994,-0.5000,0.4600,9.6500,0.2600,1.7500,0.0000,0.0000,0.0000,0.2314,-0.2911,-0.9278,0.0265,4.0300,-1.7800,-8.7500,0.0000,0.0000,0.0000,0.6089,-0.4087,-0.4544,-0.5054,9.5200,-0.3000,2.4200,0.0000,0.0000,0.0000,-0.5125,0.4608,0.4417,0.5742,9.5900,0.4500,1.7000,0.0000,0.0000,0.0000,0.2303,-0.4137,-0.8657,-0.1622,5.2200,0.9000,-8.2400,0.0000,0.0000,0.0000
119588,0,0,1,-5.4272,-0.2417,-2.7466,2.4390,0.0055,-0.0183,-7.2729,-2.3950,0.0072,9.8162,-0.0192,0.3052,-1.9836,-4.0588,0.0072,9.8162,-0.0192,0.3052,-1.9836,-4.0588,9.7539,-0.2139,0.9644,-0.0529,-0.0533,0.0064,0.0828,0.6659,-0.0903,0.7360,0.5105,0.4799,-0.4804,0.5274,9.7800,-0.2600,0.6600,0.0000,0.0000,0.0000,0.6154,0.3994,-0.5000,0.4600,9.6500,0.2600,1.7500,0.0000,0.0000,0.0000,0.2314,-0.2911,-0.9278,0.0265,4.0400,-1.8100,-8.7400,0.0000,0.0000,0.0000,0.6088,-0.4088,-0.4544,-0.5055,9.5100,-0.3200,2.3900,0.0000,0.0000,0.0000,-0.5125,0.4608,0.4417,0.5742,9.5700,0.4700,1.6900,0.0000,0.0000,0.0000,0.2303,-0.4137,-0.8657,-0.1622,5.2000,0.8900,-8.2200,0.0000,0.0000,0.0000
119589,0,0,1,-5.4272,-0.2417,-2.7466,2.4390,0.0037,0.0238,-7.2729,-2.3950,0.0311,9.8665,-0.0383,0.2747,-2.0142,-4.3030,0.0311,9.8665,-0.0383,0.2747,-2.0142,-4.3030,9.7539,-0.2139,0.9644,-0.0529,-0.0533,0.0064,0.0828,0.6659,-0.0903,0.7360,0.5105,0.4799,-0.4804,0.5274,9.8000,-0.2600,0.6200,0.0000,0.0000,0.0000,0.6154,0.3994,-0.5000,0.4600,9.6600,0.2500,1.7300,0.0000,0.0000,0.0000,0.2314,-0.2911,-0.9278,0.0265,4.0300,-1.8000,-8.7400,0.0000,0.0000,0.0000,0.6087,-0.4089,-0.4544,-0.5056,9.4900,-0.2900,2.4100,0.0000,0.0000,0.0000,-0.5125,0.4608,0.4417,0.5743,9.5600,0.4800,1.6600,0.0000,0.0000,0.0000,0.2303,-0.4137,-0.8657,-0.1622,5.2000,0.8900,-8.2200,0.0000,0.0000,0.0000
119590,0,0,1,-5.4272,-0.2417,-2.7466,2.4170,-0.0275,0.0183,-7.2729,-2.3950,0.0096,9.8186,-0.0311,0.3357,-2.0447,-4.4250,0.0096,9.8186,-0.0311,0.3357,-2.0447,-4.4250,9.7693,-0.2327,1.0041,-0.0589,-0.0507,0.0070,0.0828,0.6659,-0.0904,0.7359,0.5105,0.4799,-0.4804,0.5274,9.8000,-0.2500,0.6300,0.0000,0.0000,0.0000,0.6154,0.3993,-0.5001,0.4600,9.6500,0.2500,1.7200,0.0000,0.0000,0.0000,0.2314,-0.2911,-0.9278,0.0265,4.0300,-1.8000,-8.7400,0.0000,0.0000,0.0000,0.6086,-0.4090,-0.4544,-0.5056,9.4800,-0.3200,2.4200,0.0000,0.0000,0.0000,-0.5125,0.4607,0.4417,0.5743,9.5300,0.4600,1.6100,0.0000,0.0000,0.0000,0.2303,-0.4137,-0.8657,-0.1622,5.2000,0.8500,-8.2400,0.0000,0.0000,0.0000
119591,0,0,1,-5.4053,-0.2417,-2.7466,2.4170,-0.0092,-0.0165,-7.2729,-2.3950,0.0311,9.8904,-0.0096,0.2441,-1.9836,-4.1199,0.0311,9.8904,-0.0096,0.2441,-1.9836,-4.1199,9.7693,-0.2327,1.0041,-0.0589,-0.0507,0.0070,0.0828,0.6659,-0.0904,0.7359,0.5105,0.4799,-0.4804,0.5274,9.8000,-0.2500,0.6300,0.0000,0.0000,0.0000,0.6154,0.3993,-0.5001,0.4600,9.6400,0.2400,1.7000,0.0000,0.0000,0.0000,0.2314,-0.2911,-0.9278,0.0265,4.0200,-1.8000,-8.7400,0.0000,0.0000,0.0000,0.6085,-0.4091,-0.4544,-0.5057,9.4300,-0.3000,2.4300,-0.1000,0.0000,0.0000,-0.5125,0.4607,0.4417,0.5743,9.5300,0.4600,1.6100,0.0000,0.0000,0.0000,0.2303,-0.4137,-0.8657,-0.1622,5.1500,0.8200,-8.2800,0.0000,0.0000,0.0000
119592,0,0,1,-5.4053,-0.2417,-2.7466,2.4170,0.0110,0.0146,-7.2729,-2.3950,0.0742,9.8450,-0.0431,0.2747,-2.0752,-4.2114,0.0742,9.8450,-0.0431,0.2747,-2.0752,-4.2114,9.7693,-0.2327,1.0041,-0.0589,-0.0507,0.0070,0.0828,0.6659,-0.0904,0.7359,0.5105,0.4799,-0.4804,0.5274,9.7700,-0.2200,0.6200,0.0000,0.0000,0.0000,0.6154,0.3993,-0.5001,0.4600,9.6600,0.2400,1.7300,0.0000,0.0000,0.0000,0.2314,-0.2911,-0.9278,0.0265,4.0200,-1.7800,-8.7400,0.0000,0.0000,0.0000,0.6084,-0.4091,-0.4544,-0.5058,9.4500,-0.2900,2.4300,-0.1000,0.0000,0.0000,-0.5125,0.4607,0.4417,0.5743,9.5200,0.4800,1.6100,0.0000,0.0000,0.0000,0.2303,-0.4137,-0.8657,-0.1622,5.1200,0.8300,-8.2700,0.0000,0.0000,0.0000
119593,0,0,1,-5.4053,-0.2417,-2.7466,2.4170,0.0110,0.0055,-7.2510,-2.3950,0.0335,9.7923,-0.0479,0.2136,-1.9531,-4.2725,0.0335,9.7923,-0.0479,0.2136,-1.9531,-4.2725,9.7264,-0.1896,0.9286,-0.0538,-0.0551,0.0028,0.0829,0.6660,-0.0905,0.7358,0.5105,0.4799,-0.4804,0.5274,9.7800,-0.2200,0.6400,0.0000,0.0000,0.0000,0.6154,0.3993,-0.5001,0.4600,9.6600,0.2400,1.7300,0.0000,0.0000,0.0000,0.2314,-0.2911,-0.9278,0.0265,4.0200,-1.7700,-8.7500,0.0000,0.0000,0.0000,0.6084,-0.4091,-0.4544,-0.5058,9.4500,-0.2900,2.4300,-0.1000,0.0000,0.0000,-0.5125,0.4607,0.4417,0.5743,9.5700,0.4800,1.6200,0.0000,0.0000,0.0000,0.2303,-0.4136,-0.8657,-0.1622,5.1500,0.8100,-8.2600,0.0000,0.0000,0.0000
119594,0,0,1,-5.4053,-0.2417,-2.7466,2.4170,0.0000,0.0220,-7.2510,-2.3950,0.0407,9.7683,-0.0311,0.1526,-2.0142,-4.0588,0.0407,9.7683,-0.0311,0.1526,-2.0142,-4.0588,9.7264,-0.1896,0.9286,-0.0538,-0.0551,0.0028,0.0829,0.6660,-0.0905,0.7358,0.5104,0.4799,-0.4804,0.5274,9.7700,-0.2200,0.6400,0.0000,0.0000,0.0000,0.6154,0.3993,-0.5001,0.4600,9.6600,0.2200,1.7100,0.0000,0.0000,0.0000,0.2314,-0.2911,-0.9278,0.0265,4.0400,-1.7500,-8.7500,0.0000,0.0000,0.0000,0.6083,-0.4092,-0.4544,-0.5058,9.4200,-0.2500,2.4200,-0.1000,0.0000,0.0000,-0.5125,0.4607,0.4417,0.5743,9.5700,0.4800,1.6200,0.0000,0.0000,0.0000,0.2303,-0.4136,-0.8657,-0.1622,5.1500,0.8100,-8.2600,0.0000,0.0000,0.0000
119595,0,0,1,-5.4053,-0.2417,-2.7466,2.4170,-0.0146,0.0110,-7.2510,-2.3950,0.0287,9.8090,-0.0287,0.1526,-1.8921,-3.8757,0.0287,9.8090,-0.0287,0.1526,-1.8921,-3.8757,9.7638,-0.1848,0.9583,-0.0576,-0.0521,0.0010,0.0830,0.6661,-0.0907,0.7357,0.5104,0.4799,-0.4804,0.5274,9.8400,-0.2300,0.6700,0.0000,0.0000,0.0000,0.6154,0.3993,-0.5001,0.4600,9.6300,0.2200,1.6800,0.0000,0.0000,0.0000,0.2314,-0.2911,-0.9278,0.0265,4.0400,-1.7500,-8.7500,0.0000,0.0000,0.0000,0.6082,-0.4093,-0.4543,-0.5059,9.3600,-0.2900,2.4300,-0.1000,0.0000,0.0000,-0.5125,0.4606,0.4418,0.5743,9.5500,0.5000,1.6800,0.0000,0.0000,0.0000,0.2303,-0.4136,-0.8657,-0.1622,5.1800,0.8300,-8.2900,0.0000,0.0000,0.0000
119596,0,0,1,-5.4053,-0.2417,-2.7466,2.4170,0.0055,0.0146,-7.2510,-2.3950,0.0742,9.8019,-0.0527,0.1831,-1.8311,-4.2725,0.0742,9.8019,-0.0527,0.1831,-1.8311,-4.2725,9.7638,-0.1848,0.9583,-0.0576,-0.0521,0.0010,0.0830,0.6661,-0.0907,0.7357,0.5104,0.4799,-0.4804,0.5274,9.8400,-0.2300,0.6700,0.0000,0.0000,0.0000,0.6154,0.3992,-0.5001,0.4600,9.6100,0.2300,1.6700,0.0000,0.0000,0.0000,0.2314,-0.2911,-0.9278,0.0265,4.0200,-1.7900,-8.7500,0.0000,0.0000,0.0000,0.6081,-0.4094,-0.4543,-0.5060,9.3600,-0.2900,2.4400,-0.1000,0.0000,0.0000,-0.5125,0.4606,0.4418,0.5743,9.5500,0.5000,1.6800,0.0000,0.0000,0.0000,0.2303,-0.4136,-0.8657,-0.1622,5.1900,0.8200,-8.2700,0.0000,0.0000,0.0000
119597,0,0,1,-5.3833,-0.2197,-2.7466,2.3950,0.0018,-0.0092,-7.2510,-2.3950,0.1077,9.7827,-0.0551,0.3052,-1.8616,-4.2419,0.1077,9.7827,-0.0551,0.3052,-1.8616,-4.2419,9.7638,-0.1848,0.9583,-0.0576,-0.0521,0.0010,0.0830,0.6661,-0.0907,0.7357,0.5104,0.4799,-0.4804,0.5274,9.7800,-0.2700,0.6400,0.0000,0.0000,0.0000,0.6154,0.3992,-0.5001,0.4600,9.6200,0.2300,1.6800,0.0000,0.0000,0.0000,0.2315,-0.2911,-0.9278,0.0265,4.0100,-1.7900,-8.7300,0.0000,0.0000,0.0000,0.6080,-0.4095,-0.4543,-0.5061,9.3400,-0.3100,2.4400,-0.1000,0.0000,0.0000,-0.5125,0.4606,0.4418,0.5743,9.5700,0.5200,1.7000,0.0000,0.0000,0.0000,0.2303,-0.4136,-0.8657,-0.1622,5.2000,0.8600,-8.2800,0.0000,0.0000,0.0000
119598,0,0,1,-5.3833,-0.2417,-2.7466,2.3950,-0.0092,-0.0183,-7.2510,-2.3950,0.0790,9.8114,0.0000,0.1221,-1.8616,-3.9978,0.0790,9.8114,0.0000,0.1221,-1.8616,-3.9978,9.6995,-0.2067,1.0086,-0.0572,-0.0534,0.0038,0.0831,0.6662,-0.0908,0.7356,0.5104,0.4799,-0.4805,0.5274,9.7700,-0.2700,0.6600,0.0000,0.0000,0.0000,0.6154,0.3992,-0.5001,0.4600,9.6200,0.2300,1.6700,0.0000,0.0000,0.0000,0.2315,-0.2911,-0.9278,0.0265,4.0200,-1.8000,-8.7200,0.0000,0.0000,0.0000,0.6080,-0.4095,-0.4543,-0.5061,9.3400,-0.3100,2.4400,-0.1000,0.0000,0.0000,-0.5125,0.4605,0.4418,0.5743,9.6000,0.5100,1.7000,0.0000,0.0000,0.0000,0.2303,-0.4136,-0.8657,-0.1622,5.2100,0.8700,-8.2500,0.0000,0.0000,0.0000
119599,0,0,1,-5.3833,-0.2417,-2.7466,2.3950,0.0238,0.0110,-7.2290,-2.3730,0.0886,9.7683,-0.0455,0.1831,-1.8616,-3.8757,0.0886,9.7683,-0.0455,0.1831,-1.8616,-3.8757,9.6995,-0.2067,1.0086,-0.0572,-0.0534,0.0038,0.0831,0.6662,-0.0908,0.7356,0.5104,0.4799,-0.4805,0.5274,9.7300,-0.2600,0.6500,0.0000,0.0000,0.0000,0.6154,0.3992,-0.5001,0.4600,9.6200,0.2300,1.6700,0.0000,0.0000,0.0000,0.2315,-0.2911,-0.9278,0.0265,3.9900,-1.8000,-8.7100,0.0000,0.0000,0.0000,0.6079,-0.4096,-0.4543,-0.5062,9.4200,-0.2700,2.4200,-0.1000,0.0000,0.0000,-0.5126,0.4605,0.4418,0.5743,9.6200,0.4900,1.7100,0.0000,0.0000,0.0000,0.2303,-0.4136,-0.8657,-0.1622,5.2100,0.8700,-8.2500,0.0000,0.0000,0.0000
119600,0,0,1,-5.3833,-0.2417,-2.7466,2.3950,0.0055,0.0238,-7.2290,-2.3730,0.0694,9.7971,-0.0694,0.2136,-1.5869,-4.3335,0.0694,9.7971,-0.0694,0.2136,-1.5869,-4.3335,9.7677,-0.2453,1.0734,-0.0542,-0.0546,0.0043,0.0831,0.6663,-0.0909,0.7354,0.5104,0.4799,-0.4805,0.5274,9.7600,-0.3100,0.6300,0.0000,0.0000,0.0000,0.6154,0.3992,-0.5002,0.4600,9.6100,0.1900,1.6600,0.0000,0.0000,0.0000,0.2315,-0.2911,-0.9278,0.0265,4.0000,-1.8000,-8.7100,0.0000,0.0000,0.0000,0.6078,-0.4096,-0.4542,-0.5063,9.3700,-0.3000,2.4100,-0.1000,0.0000,0.0000,-0.5126,0.4604,0.4419,0.5743,9.6200,0.5000,1.7100,0.0000,0.0000,0.0000,0.2303,-0.4136,-0.8657,-0.1622,5.2100,0.8600,-8.2800,0.0000,0.0000,0.0000
119601,0,0,1,-5.3833,-0.2417,-2.7466,2.3950,-0.0201,-0.0073,-7.2290,-2.3730,0.1125,9.8497,0.0311,0.1526,-1.8616,-4.0283,0.1125,9.8497,0.0311,0.1526,-1.8616,-4.0283,9.7677,-0.2453,1.0734,-0.0542,-0.0546,0.0043,0.0831,0.6663,-0.0909,0.7354,0.5104,0.4799,-0.4805,0.5274,9.7600,-0.3100,0.6300,0.0000,0.0000,0.0000,0.6154,0.3992,-0.5002,0.4600,9.6500,0.1700,1.7500,0.0000,0.0000,0.0000,0.2315,-0.2911,-0.9278,0.0265,4.0000,-1.8000,-8.7100,0.0000,0.0000,0.0000,0.6077,-0.4097,-0.4542,-0.5064,9.4400,-0.2500,2.4200,-0.1000,0.0000,0.0000,-0.5126,0.4604,0.4419,0.5743,9.6200,0.5000,1.7100,0.0000,0.0000,0.0000,0.2303,-0.4136,-0.8657,-0.1622,5.2500,0.8600,-8.2700,0.0000,0.0000,0.0000
119602,0,0,1,-5.3833,-0.2417,-2.7466,2.3950,-0.0146,0.0037,-7.2290,-2.3730,0.0742,9.8426,-0.0048,0.0916,-1.8616,-3.9978,0.0742,9.8426,-0.0048,0.0916,-1.8616,-3.9978,9.7677,-0.2453,1.0734,-0.0542,-0.0546,0.0043,0.0831,0.6663,-0.0909,0.7354,0.5104,0.4799,-0.4805,0.5274,9.7300,-0.3000,0.6300,0.0000,0.0000,0.0000,0.6154,0.3991,-0.5002,0.4600,9.6800,0.2000,1.8000,0.0000,0.0000,0.0000,0.2315,-0.2911,-0.9278,0.0265,4.0000,-1.8000,-8.7600,0.0000,0.0000,0.0000,0.6076,-0.4098,-0.4541,-0.5065,9.4600,-0.3000,2.4100,-0.1000,0.0000,0.0000,-0.5126,0.4603,0.4419,0.5743,9.6600,0.4700,1.7600,0.0000,0.0000,0.0000,0.2304,-0.4136,-0.8657,-0.1622,5.2000,0.8400,-8.2600,0.0000,0.0000,0.0000
119603,0,0,1,-5.3613,-0.2197,-2.7466,2.3950,-0.0165,-0.0183,-7.2070,-2.3730,0.0982,9.8186,0.0000,0.0610,-1.8005,-3.9062,0.0982,9.8186,0.0000,0.0610,-1.8005,-3.9062,9.7739,-0.2082,1.0520,-0.0593,-0.0549,0.0073,0.0832,0.6664,-0.0910,0.7353,0.5104,0.4799,-0.4806,0.5273,9.7600,-0.3100,0.6400,0.0000,0.0000,0.0000,0.6154,0.3991,-0.5002,0.4600,9.6500,0.1800,1.7500,0.0000,0.0000,0.0000,0.2315,-0.2911,-0.9278,0.0265,3.9900,-1.8000,-8.7400,0.0000,0.0000,0.0000,0.6076,-0.4098,-0.4541,-0.5065,9.4600,-0.3000,2.4100,-0.1000,0.0000,0.0000,-0.5127,0.4603,0.4419,0.5743,9.6800,0.4200,1.8300,0.0000,0.0000,0.0000,0.2304,-0.4136,-0.8657,-0.1622,5.2100,0.8800,-8.2500,0.0000,0.0000,0.0000
119604,0,0,1,-5.3613,-0.2197,-2.7466,2.3950,0.0092,0.0055,-7.2070,-2.3730,0.0910,9.9192,-0.0742,0.2136,-2.0142,-3.9673,0.0910,9.9192,-0.0742,0.2136,-2.0142,-3.9673,9.7739,-0.2082,1.0520,-0.0593,-0.0549,0.0073,0.0832,0.6664,-0.0910,0.7353,0.5104,0.4799,-0.4806,0.5273,9.7200,-0.3400,0.6800,0.0000,0.0000,0.0000,0.6154,0.3991,-0.5002,0.4600,9.6500,0.1800,1.7500,0.0000,0.0000,0.0000,0.2315,-0.2911,-0.9278,0.0265,4.0100,-1.8100,-8.7400,0.0000,0.0000,0.0000,0.6075,-0.4099,-0.4540,-0.5066,9.5300,-0.2100,2.4000,-0.1000,0.0000,0.0000,-0.5128,0.4602,0.4420,0.5742,9.6800,0.4000,1.8500,0.0000,0.0000,0.0000,0.2304,-0.4136,-0.8657,-0.1622,5.2100,0.8800,-8.2500,0.0000,0.0000,0.0000
119605,0,0,1,-5.3613,-0.2197,-2.7466,2.3950,-0.0055,-0.0238,-7.2070,-2.3730,0.0838,9.8497,-0.0168,0.1221,-2.1057,-4.2419,0.0838,9.8497,-0.0168,0.1221,-2.1057,-4.2419,9.7867,-0.2910,1.0759,-0.0599,-0.0590,0.0067,0.0833,0.6665,-0.0912,0.7352,0.5104,0.4799,-0.4807,0.5273,9.6900,-0.3200,0.6800,0.0000,0.0000,0.0000,0.6154,0.3991,-0.5002,0.4600,9.6200,0.1900,1.6500,0.0000,0.0000,0.0000,0.2315,-0.2911,-0.9278,0.0265,4.0100,-1.8100,-8.7400,0.0000,0.0000,0.0000,0.6074,-0.4100,-0.4540,-0.5067,9.4900,-0.2100,2.3700,-0.1000,0.0000,0.0000,-0.5128,0.4601,0.4420,0.5742,9.7000,0.3200,1.8600,0.0000,0.0000,0.0000,0.2304,-0.4136,-0.8657,-0.1622,5.2900,0.9200,-8.1300,0.0000,0.0000,0.0000
119606,0,0,1,-5.3613,-0.2197,-2.7466,2.3950,-0.0055,-0.0146,-7.2070,-2.3730,0.0575,9.8809,-0.0192,0.0000,-2.1057,-4.1809,0.0575,9.8809,-0.0192,0.0000,-2.1057,-4.1809,9.7867,-0.2910,1.0759,-0.0599,-0.0590,0.0067,0.0833,0.6665,-0.0912,0.7352,0.5104,0.4799,-0.4807,0.5273,9.6900,-0.3200,0.6800,0.0000,0.0000,0.0000,0.6154,0.3990,-0.5002,0.4600,9.5900,0.2200,1.6200,0.0000,0.0000,0.0000,0.2315,-0.2911,-0.9278,0.0265,4.0100,-1.7600,-8.7600,0.0000,0.0000,0.0000,0.6073,-0.4100,-0.4539,-0.5068,9.4800,-0.2200,2.3900,-0.1000,0.0000,0.0000,-0.5128,0.4601,0.4420,0.5742,9.7000,0.3200,1.8600,0.0000,0.0000,0.0000,0.2304,-0.4136,-0.8657,-0.1623,5.2300,0.9100,-8.3600,0.0000,0.0000,0.0000
119607,0,0,1,-5.3613,-0.2197,-2.7466,2.3950,0.0073,0.0183,-7.1851,-2.3730,0.1532,9.9048,0.0407,0.1221,-2.1362,-3.9978,0.1532,9.9048,0.0407,0.1221,-2.1362,-3.9978,9.7867,-0.2910,1.0759,-0.0599,-0.0590,0.0067,0.0833,0.6665,-0.0912,0.7352,0.5104,0.4798,-0.4807,0.5273,9.7100,-0.3200,0.7100,0.0000,0.0000,0.0000,0.6154,0.3990,-0.5003,0.4600,9.6000,0.2600,1.6300,0.0000,0.0000,0.0000,0.2315,-0.2911,-0.9278,0.0265,4.0300,-1.8300,-8.7500,0.0000,0.0000,0.0000,0.6072,-0.4101,-0.4539,-0.5069,9.5400,-0.2800,2.3800,-0.1000,0.0000,0.0000,-0.5129,0.4600,0.4421,0.5742,9.7100,0.3000,1.8800,0.0000,0.0000,0.0000,0.2304,-0.4136,-0.8657,-0.1623,5.1400,0.8500,-8.3500,0.0000,0.0000,0.0000
119608,0,0,1,-5.3394,-0.1978,-2.7466,2.3950,-0.0037,-0.0128,-7.1851,-2.3511,0.0287,9.8617,-0.0431,0.1526,-2.1667,-3.9978,0.0287,9.8617,-0.0431,0.1526,-2.1667,-3.9978,9.8199,-0.2384,1.0612,-0.0621,-0.0536,0.0060,0.0834,0.6666,-0.0913,0.7351,0.5104,0.4798,-0.4807,0.5273,9.7200,-0.2800,0.7200,0.0000,0.0000,0.0000,0.6154,0.3990,-0.5003,0.4600,9.6000,0.2600,1.6300,0.0000,0.0000,0.0000,0.2315,-0.2911,-0.9278,0.0265,4.0500,-1.8300,-8.7200,0.0000,0.0000,0.0000,0.6072,-0.4101,-0.4539,-0.5069,9.5400,-0.2800,2.3800,-0.1000,0.0000,0.0000,-0.5129,0.4599,0.4421,0.5742,9.7000,0.2600,1.9100,0.0000,0.0000,0.0000,0.2304,-0.4136,-0.8657,-0.1623,5.3600,0.9600,-8.1100,0.0000,0.0000,0.0000
119609,0,0,1,-5.3394,-0.1978,-2.7466,2.3950,0.0110,0.0092,-7.1851,-2.3511,0.1101,9.9216,-0.0168,0.1831,-2.2888,-4.1504,0.1101,9.9216,-0.0168,0.1831,-2.2888,-4.1504,9.8199,-0.2384,1.0612,-0.0621,-0.0536,0.0060,0.0834,0.6666,-0.0913,0.7351,0.5104,0.4798,-0.4808,0.5272,9.7600,-0.3100,0.7600,0.0000,0.0000,0.0000,0.6155,0.3989,-0.5003,0.4600,9.6400,0.3000,1.6800,0.0000,0.0000,0.0000,0.2316,-0.2911,-0.9278,0.0265,4.0500,-1.8000,-8.7100,0.0000,0.0000,0.0000,0.6071,-0.4102,-0.4538,-0.5070,9.5500,-0.3700,2.4200,-0.1000,0.0000,0.0000,-0.5130,0.4598,0.4422,0.5742,9.7100,0.2200,1.9100,0.0000,0.0000,0.0000,0.2304,-0.4136,-0.8657,-0.1623,5.3600,0.9600,-8.1100,0.0000,0.0000,0.0000
119610,0,0,1,-5.3394,-0.1978,-2.7466,2.3950,-0.0055,-0.0110,-7.1631,-2.3511,0.1748,9.9359,0.0120,0.0610,-2.4719,-3.9062,0.1748,9.9359,0.0120,0.0610,-2.4719,-3.9062,9.8025,-0.2520,1.0410,-0.0689,-0.0520,0.0036,0.0835,0.6666,-0.0914,0.7350,0.5104,0.4798,-0.4808,0.5272,9.7600,-0.2900,0.7900,0.0000,0.0000,0.0000,0.6155,0.3989,-0.5003,0.4600,9.6500,0.2900,1.6800,0.0000,0.0000,0.0000,0.2316,-0.2911,-0.9278,0.0265,4.0500,-1.8000,-8.7100,0.0000,0.0000,0.0000,0.6070,-0.4103,-0.4538,-0.5070,9.5700,-0.3400,2.4000,-0.1000,0.0000,0.0000,-0.5130,0.4598,0.4422,0.5742,9.7100,0.2200,1.9100,0.0000,0.0000,0.0000,0.2304,-0.4136,-0.8656,-0.1623,5.2100,0.9100,-8.2300,0.0000,0.0000,0.0000
119611,0,0,1,-5.3394,-0.1978,-2.7466,2.3950,-0.0183,-0.0110,-7.1631,-2.3511,0.1030,9.9383,0.0144,0.0916,-2.5330,-3.7842,0.1030,9.9383,0.0144,0.0916,-2.5330,-3.7842,9.8025,-0.2520,1.0410,-0.0689,-0.0520,0.0036,0.0835,0.6666,-0.0914,0.7350,0.5104,0.4798,-0.4808,0.5272,9.7600,-0.2900,0.7900,0.0000,0.0000,0.0000,0.6155,0.3988,-0.5003,0.4599,9.6700,0.3000,1.6900,0.0000,0.0000,0.0000,0.2316,-0.2911,-0.9278,0.0265,4.0500,-1.7400,-8.7300,0.0000,0.0000,0.0000,0.6069,-0.4104,-0.4537,-0.5071,9.5100,-0.3600,2.4300,-0.1000,0.0000,0.0000,-0.5130,0.4598,0.4422,0.5741,9.7300,0.2100,1.9800,0.0000,0.0000,0.0000,0.2305,-0.4136,-0.8656,-0.1623,5.1300,0.8800,-8.2400,0.0000,0.0000,0.0000
119612,0,0,1,-5.2954,-0.1758,-2.7246,2.3950,0.0037,-0.0037,-7.1631,-2.3511,0.0934,9.8713,0.0120,0.1221,-2.4414,-3.9673,0.0934,9.8713,0.0120,0.1221,-2.4414,-3.9673,9.8025,-0.2520,1.0410,-0.0689,-0.0520,0.0036,0.0835,0.6666,-0.0914,0.7350,0.5104,0.4797,-0.4809,0.5272,9.7600,-0.2900,0.8200,0.0000,0.0000,0.0000,0.6155,0.3988,-0.5004,0.4599,9.6700,0.3300,1.7300,0.0000,0.0000,0.0000,0.2316,-0.2911,-0.9278,0.0265,4.0600,-1.6800,-8.7600,0.0000,0.0000,0.0000,0.6069,-0.4104,-0.4537,-0.5071,9.5100,-0.3600,2.4300,-0.1000,0.0000,0.0000,-0.5131,0.4597,0.4423,0.5741,9.7100,0.1500,2.0400,0.0000,0.0000,0.0000,0.2305,-0.4135,-0.8656,-0.1624,5.2500,0.9300,-8.2400,0.0000,0.0000,0.0000
119613,0,0,1,-5.2954,-0.1758,-2.7246,2.3950,0.0055,0.0092,-7.1411,-2.3291,0.1365,9.9216,0.0215,0.0916,-2.5635,-3.9673,0.1365,9.9216,0.0215,0.0916,-2.5635,-3.9673,9.7751,-0.2563,1.0690,-0.0714,-0.0584,0.0012,0.0836,0.6667,-0.0916,0.7349,0.5104,0.4797,-0.4809,0.5271,9.7600,-0.2500,0.8000,0.0000,0.0000,0.0000,0.6155,0.3988,-0.5004,0.4599,9.6700,0.3300,1.7300,0.0000,0.0000,0.0000,0.2316,-0.2911,-0.9278,0.0266,4.0500,-1.7100,-8.7500,0.0000,0.0000,0.0000,0.6068,-0.4105,-0.4537,-0.5072,9.4500,-0.3500,2.4100,-0.1000,0.0000,0.0000,-0.5131,0.4596,0.4423,0.5741,9.6800,0.1200,2.0400,0.0000,0.0000,0.0000,0.2305,-0.4135,-0.8656,-0.1624,5.2500,0.9300,-8.2400,0.0000,0.0000,0.0000
119614,0,0,1,-5.2954,-0.1758,-2.7246,2.3950,-0.0128,0.0110,-7.1411,-2.3291,0.1413,9.9096,0.0120,0.0916,-2.8381,-3.8757,0.1413,9.9096,0.0120,0.0916,-2.8381,-3.8757,9.7751,-0.2563,1.0690,-0.0714,-0.0584,0.0012,0.0836,0.6667,-0.0916,0.7349,0.5104,0.4797,-0.4810,0.5271,9.7700,-0.2700,0.8300,0.0000,0.0000,0.0000,0.6155,0.3987,-0.5004,0.4599,9.6700,0.3800,1.7400,0.0000,0.0000,0.0000,0.2316,-0.2911,-0.9278,0.0266,4.0400,-1.7600,-8.7600,0.0000,0.0000,0.0000,0.6067,-0.4106,-0.4537,-0.5073,9.4800,-0.3400,2.4200,-0.1000,0.0000,0.0000,-0.5132,0.4595,0.4424,0.5741,9.6600,0.1200,2.0200,0.0000,0.0000,0.0000,0.2305,-0.4135,-0.8656,-0.1624,5.2400,0.9900,-8.1900,0.0000,0.0000,0.0000
119615,0,0,1,-5.2954,-0.1758,-2.7246,2.3950,-0.0037,-0.0256,-7.1411,-2.3291,0.1269,9.8665,-0.0239,0.2136,-2.6550,-3.8147,0.1269,9.8665,-0.0239,0.2136,-2.6550,-3.8147,9.8289,-0.2226,1.1404,-0.0705,-0.0560,-0.0014,0.0837,0.6668,-0.0917,0.7348,0.5105,0.4797,-0.4810,0.5271,9.7500,-0.2800,0.8000,0.0000,0.0000,0.0000,0.6156,0.3987,-0.5004,0.4599,9.6900,0.3700,1.7600,0.0000,0.0000,0.0000,0.2316,-0.2911,-0.9278,0.0266,4.0400,-1.7600,-8.7600,0.0000,0.0000,0.0000,0.6066,-0.4107,-0.4536,-0.5073,9.4400,-0.4900,2.4300,-0.1000,0.0000,0.0000,-0.5132,0.4595,0.4424,0.5741,9.6900,0.0900,2.0200,0.0000,0.0000,0.0000,0.2305,-0.4135,-0.8656,-0.1624,5.1900,0.8900,-8.2400,0.0000,0.0000,0.0000
119616,0,0,1,-5.2954,-0.1758,-2.7246,2.3950,0.0073,0.0201,-7.1191,-2.3071,0.1532,9.8402,0.0168,0.0000,-2.6855,-4.0588,0.1532,9.8402,0.0168,0.0000,-2.6855,-4.0588,9.8289,-0.2226,1.1404,-0.0705,-0.0560,-0.0014,0.0837,0.6668,-0.0917,0.7348,0.5105,0.4797,-0.4810,0.5271,9.7500,-0.2800,0.8000,0.0000,0.0000,0.0000,0.6156,0.3986,-0.5004,0.4599,9.6900,0.4000,1.8000,0.0000,0.0000,0.0000,0.2316,-0.2911,-0.9278,0.0266,4.0000,-1.8600,-8.7800,0.0000,0.0000,0.0000,0.6065,-0.4108,-0.4536,-0.5074,9.4900,-0.4400,2.4700,-0.1000,0.0000,0.0000,-0.5132,0.4595,0.4424,0.5741,9.6900,0.0900,2.0200,0.0000,0.0000,0.0000,0.2305,-0.4135,-0.8656,-0.1624,5.2400,0.9500,-8.2700,0.0000,0.0000,0.0000
119617,0,0,1,-5.2734,-0.1538,-2.7246,2.3950,-0.0092,0.0055,-7.1191,-2.3071,0.1604,9.8976,-0.0575,0.1526,-2.8687,-3.9978,0.1604,9.8976,-0.0575,0.1526,-2.8687,-3.9978,9.8289,-0.2226,1.1404,-0.0705,-0.0560,-0.0014,0.0837,0.6668,-0.0917,0.7348,0.5105,0.4796,-0.4810,0.5270,9.7400,-0.2900,0.8300,0.0000,0.0000,0.0000,0.6156,0.3986,-0.5005,0.4599,9.6700,0.4100,1.8500,0.0000,0.0000,0.0000,0.2317,-0.2911,-0.9278,0.0266,4.0100,-1.8700,-8.7200,0.0000,0.0000,0.0000,0.6064,-0.4109,-0.4535,-0.5075,9.4200,-0.5200,2.4700,-0.1000,0.0000,0.0000,-0.5132,0.4594,0.4425,0.5741,9.6900,0.0900,2.0300,0.0000,0.0000,0.0000,0.2305,-0.4135,-0.8656,-0.1624,5.2100,0.9000,-8.1900,0.0000,0.0000,0.0000
119618,0,0,1,-5.2515,-0.1538,-2.7026,2.3950,-0.0110,0.0220,-7.0972,-2.3071,0.1221,9.8306,-0.0215,0.0610,-2.7161,-3.9673,0.1221,9.8306,-0.0215,0.0610,-2.7161,-3.9673,9.8322,-0.1966,1.1637,-0.0688,-0.0539,-0.0011,0.0838,0.6669,-0.0919,0.7347,0.5105,0.4796,-0.4811,0.5270,9.7100,-0.2800,0.7800,0.0000,0.0000,0.0000,0.6156,0.3986,-0.5005,0.4599,9.6700,0.4100,1.8500,0.0000,0.0000,0.0000,0.2317,-0.2911,-0.9278,0.0266,4.0200,-1.8300,-8.7300,0.0000,0.0000,0.0000,0.6064,-0.4109,-0.4535,-0.5075,9.4200,-0.5200,2.4700,-0.1000,0.0000,0.0000,-0.5132,0.4594,0.4425,0.5741,9.6800,0.0400,2.0200,0.0000,0.0000,0.0000,0.2305,-0.4135,-0.8656,-0.1624,5.2300,0.9100,-8.1800,0.0000,0.0000,0.0000
119619,0,0,1,-5.2515,-0.1538,-2.7026,2.3950,0.0110,-0.0183,-7.0972,-2.3071,0.0862,9.8019,-0.0479,0.0000,-2.6550,-4.1199,0.0862,9.8019,-0.0479,0.0000,-2.6550,-4.1199,9.8322,-0.1966,1.1637,-0.0688,-0.0539,-0.0011,0.0838,0.6669,-0.0919,0.7347,0.5105,0.4796,-0.4811,0.5270,9.7300,-0.3000,0.8200,0.0000,0.0000,0.0000,0.6156,0.3985,-0.5005,0.4599,9.6500,0.3800,1.8500,0.0000,0.0000,0.0000,0.2317,-0.2911,-0.9277,0.0266,4.0200,-1.8000,-8.7400,0.0000,0.0000,0.0000,0.6064,-0.4110,-0.4534,-0.5076,9.3600,-0.6300,2.5500,-0.1000,0.0000,0.0000,-0.5132,0.4593,0.4425,0.5741,9.6400,0.0500,1.9900,0.0000,0.0000,0.0000,0.2305,-0.4135,-0.8656,-0.1625,5.2800,0.9400,-8.2400,0.0000,0.0000,0.0000
119620,0,0,1,-5.2515,-0.1538,-2.7026,2.3950,-0.0165,-0.0146,-7.0752,-2.3071,0.1700,9.8952,0.0192,0.0305,-2.8381,-3.9368,0.1700,9.8952,0.0192,0.0305,-2.8381,-3.9368,9.8211,-0.2513,1.0899,-0.0636,-0.0581,0.0029,0.0839,0.6670,-0.0920,0.7346,0.5106,0.4796,-0.4811,0.5270,9.7200,-0.2600,0.8000,0.0000,0.0000,0.0000,0.6157,0.3985,-0.5005,0.4598,9.6500,0.3400,1.8500,0.0000,0.0000,0.0000,0.2317,-0.2911,-0.9277,0.0266,4.0200,-1.8000,-8.7400,0.0000,0.0000,0.0000,0.6063,-0.4111,-0.4534,-0.5077,9.3500,-0.6000,2.5300,-0.1000,0.0000,0.0000,-0.5132,0.4593,0.4426,0.5741,9.6400,0.0400,1.9600,0.0000,0.0000,0.0000,0.2305,-0.4135,-0.8656,-0.1625,5.2800,0.9400,-8.2400,0.0000,0.0000,0.0000
119621,0,0,1,-5.2295,-0.1318,-2.7026,2.3950,0.0110,0.0146,-7.0752,-2.3071,0.2107,9.8569,0.0072,0.0000,-2.9297,-4.2725,0.2107,9.8569,0.0072,0.0000,-2.9297,-4.2725,9.8211,-0.2513,1.0899,-0.0636,-0.0581,0.0029,0.0839,0.6670,-0.0920,0.7346,0.5106,0.4796,-0.4811,0.5270,9.7200,-0.2600,0.8000,0.0000,0.0000,0.0000,0.6157,0.3985,-0.5005,0.4598,9.6500,0.3700,1.8400,0.0000,0.0000,0.0000,0.2317,-0.2911,-0.9277,0.0266,4.0300,-1.7700,-8.7600,0.0000,0.0000,0.0000,0.6062,-0.4112,-0.4533,-0.5078,9.3300,-0.6200,2.5300,-0.1000,0.0000,0.0000,-0.5132,0.4593,0.4426,0.5741,9.6400,0.0400,1.9600,0.0000,0.0000,0.0000,0.2305,-0.4135,-0.8656,-0.1625,5.2300,0.9500,-8.1900,0.0000,0.0000,0.0000
119622,0,0,1,-5.2295,-0.1318,-2.7026,2.3950,0.0146,-0.0110,-7.0532,-2.3071,0.1724,9.8976,-0.0455,0.0610,-2.9297,-4.0588,0.1724,9.8976,-0.0455,0.0610,-2.9297,-4.0588,9.8211,-0.2513,1.0899,-0.0636,-0.0581,0.0029,0.0839,0.6670,-0.0920,0.7346,0.5106,0.4795,-0.4811,0.5269,9.7600,-0.2800,0.8500,0.0000,0.0000,0.0000,0.6157,0.3984,-0.5006,0.4598,9.6600,0.3800,1.8300,0.0000,0.0000,0.0000,0.2317,-0.2911,-0.9277,0.0266,4.0400,-1.7700,-8.7700,0.0000,0.0000,0.0000,0.6061,-0.4113,-0.4532,-0.5079,9.3700,-0.5900,2.5400,-0.1000,0.0000,0.0000,-0.5132,0.4592,0.4426,0.5742,9.6300,0.0600,1.9800,0.0000,0.0000,0.0000,0.2305,-0.4135,-0.8656,-0.1625,5.2400,0.9300,-8.1900,0.0000,0.0000,0.0000
119623,0,0,1,-5.2075,-0.1318,-2.6807,2.3950,0.0110,-0.0073,-7.0312,-2.3071,0.1604,9.8474,0.0000,-0.0916,-2.7161,-3.8147,0.1604,9.8474,0.0000,-0.0916,-2.7161,-3.8147,9.7757,-0.2891,1.0817,-0.0704,-0.0608,-0.0004,0.0840,0.6671,-0.0922,0.7345,0.5106,0.4795,-0.4812,0.5269,9.7500,-0.2400,0.8300,0.0000,0.0000,0.0000,0.6157,0.3984,-0.5006,0.4598,9.6600,0.3800,1.8300,0.0000,0.0000,0.0000,0.2318,-0.2911,-0.9277,0.0266,4.0200,-1.7800,-8.7300,0.0000,0.0000,0.0000,0.6061,-0.4113,-0.4532,-0.5079,9.3700,-0.5900,2.5400,-0.1000,0.0000,0.0000,-0.5132,0.4592,0.4426,0.5742,9.6500,0.0700,2.0100,0.0000,0.0000,0.0000,0.2305,-0.4135,-0.8656,-0.1625,5.2300,0.9200,-8.2400,0.0000,0.0000,0.0000
119624,0,0,1,-5.2075,-0.1538,-2.6807,2.3730,0.0293,-0.0110,-7.0312,-2.2852,0.1772,9.9000,0.0000,0.0000,-2.9907,-4.2419,0.1772,9.9000,0.0000,0.0000,-2.9907,-4.2419,9.7757,-0.2891,1.0817,-0.0704,-0.0608,-0.0004,0.0840,0.6671,-0.0922,0.7345,0.5107,0.4795,-0.4812,0.5269,9.7900,-0.2400,0.8700,0.0000,0.0000,0.0000,0.6157,0.3984,-0.5006,0.4598,9.6600,0.3900,1.8300,0.0000,0.0000,0.0000,0.2318,-0.2911,-0.9277,0.0266,4.0200,-1.8100,-8.7400,0.0000,0.0000,0.0000,0.6060,-0.4114,-0.4531,-0.5080,9.3900,-0.5200,2.4700,-0.1000,0.0000,0.0000,-0.5131,0.4592,0.4426,0.5742,9.6600,0.0700,2.0300,0.0000,0.0000,0.0000,0.2305,-0.4135,-0.8656,-0.1625,5.2400,0.8800,-8.2700,0.0000,0.0000,0.0000
119625,0,0,1,-5.1855,-0.1318,-2.6807,2.3730,-0.0055,-0.0238,-7.0093,-2.2852,0.1891,9.8617,-0.0024,-0.0610,-3.2043,-3.9062,0.1891,9.8617,-0.0024,-0.0610,-3.2043,-3.9062,9.7272,-0.3034,1.0618,-0.0721,-0.0506,-0.0024,0.0841,0.6672,-0.0923,0.7344,0.5107,0.4794,-0.4812,0.5268,9.7600,-0.2200,0.8500,0.0000,0.0000,0.0000,0.6157,0.3984,-0.5006,0.4598,9.6800,0.4100,1.8400,0.0000,0.0000,0.0000,0.2318,-0.2911,-0.9277,0.0266,4.0200,-1.8100,-8.7400,0.0000,0.0000,0.0000,0.6059,-0.4115,-0.4529,-0.5081,9.4800,-0.5000,2.5100,-0.1000,0.0000,0.0000,-0.5131,0.4591,0.4426,0.5743,9.6600,0.0900,2.0300,0.0000,0.0000,0.0000,0.2305,-0.4135,-0.8656,-0.1625,5.2400,0.8800,-8.2700,0.0000,0.0000,0.0000
119626,0,0,1,-5.1855,-0.1318,-2.6807,2.3730,0.0165,-0.0146,-7.0093,-2.2852,0.1939,9.9144,0.0096,0.0000,-3.1738,-3.8452,0.1939,9.9144,0.0096,0.0000,-3.1738,-3.8452,9.7272,-0.3034,1.0618,-0.0721,-0.0506,-0.0024,0.0841,0.6672,-0.0923,0.7344,0.5107,0.4794,-0.4812,0.5268,9.7600,-0.2200,0.8500,0.0000,0.0000,0.0000,0.6157,0.3983,-0.5006,0.4598,9.6700,0.4000,1.8800,0.0000,0.0000,0.0000,0.2318,-0.2911,-0.9277,0.0266,4.0400,-1.8300,-8.7500,0.0000,0.0000,0.0000,0.6059,-0.4115,-0.4529,-0.5081,9.4800,-0.5000,2.5100,-0.1000,0.0000,0.0000,-0.5131,0.4591,0.4426,0.5743,9.6600,0.0900,2.0300,0.0000,0.0000,0.0000,0.2305,-0.4135,-0.8656,-0.1625,5.2700,0.9000,-8.3100,0.0000,0.0000,0.0000
119627,0,0,1,-5.1636,-0.1318,-2.6587,2.3730,-0.0128,-0.0073,-6.9873,-2.2852,0.1652,9.8138,0.0239,0.0305,-3.0518,-3.9062,0.1652,9.8138,0.0239,0.0305,-3.0518,-3.9062,9.7272,-0.3034,1.0618,-0.0721,-0.0506,-0.0024,0.0841,0.6672,-0.0923,0.7344,0.5108,0.4794,-0.4813,0.5268,9.7800,-0.2200,0.8700,0.0000,0.0000,0.0000,0.6157,0.3983,-0.5006,0.4598,9.6300,0.4300,1.9200,0.0000,0.0000,0.0000,0.2318,-0.2911,-0.9277,0.0266,4.0200,-1.8300,-8.7300,0.0000,0.0000,0.0000,0.6058,-0.4117,-0.4526,-0.5084,9.5400,-0.5700,2.5200,-0.1000,0.0000,0.0000,-0.5131,0.4591,0.4427,0.5743,9.6500,0.1300,2.0000,0.0000,0.0000,0.0000,0.2305,-0.4135,-0.8656,-0.1626,5.1900,0.9400,-8.2800,0.0000,0.0000,0.0000
119628,0,0,1,-5.1636,-0.1318,-2.6587,2.3730,0.0073,0.0128,-6.9873,-2.2852,0.1772,9.8833,-0.0335,-0.1526,-3.2959,-3.9062,0.1772,9.8833,-0.0335,-0.1526,-3.2959,-3.9062,9.7553,-0.2285,1.0034,-0.0700,-0.0543,0.0011,0.0842,0.6673,-0.0925,0.7342,0.5108,0.4793,-0.4813,0.5267,9.7900,-0.1600,0.8700,0.0000,0.0000,0.0000,0.6157,0.3983,-0.5007,0.4598,9.6300,0.4400,1.9000,0.0000,0.0000,0.0000,0.2319,-0.2911,-0.9277,0.0266,4.0800,-1.8000,-8.7200,0.0000,0.0000,0.0000,0.6058,-0.4117,-0.4526,-0.5084,9.5400,-0.5700,2.5200,-0.1000,0.0000,0.0000,-0.5130,0.4591,0.4427,0.5744,9.6700,0.1600,1.9600,0.0000,0.0000,0.0000,0.2305,-0.4135,-0.8656,-0.1626,5.2200,0.8700,-8.0500,0.0000,0.0000,0.0000
119629,0,0,1,-5.1416,-0.1318,-2.6587,2.3511,0.0146,0.0366,-6.9653,-2.2852,0.1748,9.8067,0.0000,-0.0610,-3.4485,-4.0283,0.1748,9.8067,0.0000,-0.0610,-3.4485,-4.0283,9.7553,-0.2285,1.0034,-0.0700,-0.0543,0.0011,0.0842,0.6673,-0.0925,0.7342,0.5108,0.4793,-0.4814,0.5267,9.7900,-0.1800,0.9000,0.0000,0.0000,0.0000,0.6157,0.3983,-0.5007,0.4598,9.6300,0.4400,1.9000,0.0000,0.0000,0.0000,0.2319,-0.2911,-0.9277,0.0266,4.0300,-1.8100,-8.7200,0.0000,0.0000,0.0000,0.6057,-0.4118,-0.4525,-0.5085,9.4700,-0.4700,2.4900,-0.1000,0.0000,0.0000,-0.5130,0.4591,0.4427,0.5744,9.6500,0.1900,1.9300,0.0000,0.0000,0.0000,0.2305,-0.4135,-0.8656,-0.1626,5.2200,0.8700,-8.0500,0.0000,0.0000,0.0000
119630,0,0,1,-5.1416,-0.1318,-2.6587,2.3511,-0.0055,0.0110,-6.9653,-2.2852,0.1532,9.8210,-0.0383,0.0000,-3.3569,-3.8757,0.1532,9.8210,-0.0383,0.0000,-3.3569,-3.8757,9.6954,-0.1605,1.0290,-0.0724,-0.0559,-0.0030,0.0843,0.6674,-0.0926,0.7341,0.5109,0.4793,-0.4814,0.5266,9.7400,-0.1000,0.8800,0.0000,0.0000,0.0000,0.6157,0.3983,-0.5007,0.4598,9.6000,0.4000,1.8500,0.0000,0.0000,0.0000,0.2319,-0.2911,-0.9277,0.0266,4.0300,-1.8100,-8.7200,0.0000,0.0000,0.0000,0.6057,-0.4119,-0.4524,-0.5086,9.4200,-0.5100,2.5000,-0.1000,0.0000,0.0000,-0.5129,0.4590,0.4427,0.5745,9.6400,0.2300,1.8700,0.0000,0.0000,0.0000,0.2305,-0.4135,-0.8656,-0.1626,5.3700,0.8700,-8.1600,0.0000,0.0000,0.0000
119631,0,0,1,-5.1416,-0.1318,-2.6587,2.3511,-0.0201,-0.0165,-6.9434,-2.2852,0.1772,9.8833,0.0120,0.0610,-3.6011,-3.9978,0.1772,9.8833,0.0120,0.0610,-3.6011,-3.9978,9.6954,-0.1605,1.0290,-0.0724,-0.0559,-0.0030,0.0843,0.6674,-0.0926,0.7341,0.5109,0.4793,-0.4814,0.5266,9.7400,-0.1000,0.8800,0.0000,0.0000,0.0000,0.6157,0.3982,-0.5007,0.4599,9.6000,0.3900,1.8300,0.0000,0.0000,0.0000,0.2319,-0.2911,-0.9277,0.0266,4.0600,-1.8100,-8.7200,0.0000,0.0000,0.0000,0.6056,-0.4120,-0.4522,-0.5087,9.4900,-0.3700,2.4900,-0.1000,0.0000,0.0000,-0.5129,0.4590,0.4427,0.5745,9.6400,0.2300,1.8700,0.0000,0.0000,0.0000,0.2305,-0.4135,-0.8656,-0.1626,5.2600,0.9100,-8.3100,0.0000,0.0000,0.0000
119632,0,0,1,-5.1196,-0.1099,-2.6587,2.3511,-0.0092,0.0000,-6.9434,-2.2852,0.1341,9.7588,0.0287,-0.0305,-3.5400,-3.8147,0.1341,9.7588,0.0287,-0.0305,-3.5400,-3.8147,9.6954,-0.1605,1.0290,-0.0724,-0.0559,-0.0030,0.0843,0.6674,-0.0926,0.7341,0.5109,0.4793,-0.4814,0.5266,9.7700,-0.1500,0.8700,0.0000,0.0000,0.0000,0.6157,0.3982,-0.5007,0.4599,9.6100,0.3800,1.8700,0.0000,0.0000,0.0000,0.2319,-0.2911,-0.9277,0.0267,4.0400,-1.8200,-8.7300,0.0000,0.0000,0.0000,0.6056,-0.4120,-0.4522,-0.5087,9.4900,-0.3700,2.4900,-0.1000,0.0000,0.0000,-0.5129,0.4590,0.4427,0.5745,9.6900,0.2600,1.8600,0.0000,0.0000,0.0000,0.2305,-0.4135,-0.8656,-0.1626,5.1200,0.9400,-8.1900,0.0000,0.0000,0.0000
119633,0,0,1,-5.1196,-0.1099,-2.6587,2.3291,-0.0146,-0.0092,-6.9214,-2.2852,0.1269,9.7540,0.0335,0.1831,-3.5400,-3.7842,0.1269,9.7540,0.0335,0.1831,-3.5400,-3.7842,9.6390,-0.1224,1.0061,-0.0683,-0.0561,-0.0032,0.0844,0.6674,-0.0927,0.7340,0.5109,0.4792,-0.4815,0.5265,9.7400,-0.1100,0.8900,0.0000,0.0000,0.0000,0.6157,0.3982,-0.5007,0.4599,9.6000,0.3400,1.8600,0.0000,0.0000,0.0000,0.2319,-0.2911,-0.9277,0.0267,4.0500,-1.8300,-8.7200,0.0000,0.0000,0.0000,0.6056,-0.4121,-0.4521,-0.5088,9.5500,-0.4600,2.5100,-0.1000,0.0000,0.0000,-0.5128,0.4590,0.4427,0.5745,9.7000,0.2700,1.8600,0.0000,0.0000,0.0000,0.2305,-0.4135,-0.8656,-0.1627,5.2200,0.9400,-8.1900,0.0000,0.0000,0.0000
119634,0,0,1,-5.0977,-0.1318,-2.6367,2.3291,-0.0055,0.0092,-6.9214,-2.2852,0.1317,9.7396,0.0455,-0.2136,-3.4180,-3.8147,0.1317,9.7396,0.0455,-0.2136,-3.4180,-3.8147,9.6390,-0.1224,1.0061,-0.0683,-0.0561,-0.0032,0.0844,0.6674,-0.0927,0.7340,0.5110,0.4792,-0.4815,0.5265,9.7500,-0.1400,0.8800,0.0000,0.0000,0.0000,0.6157,0.3982,-0.5007,0.4599,9.6000,0.3400,1.8600,0.0000,0.0000,0.0000,0.2320,-0.2911,-0.9277,0.0267,4.0100,-1.8400,-8.7100,0.0000,0.0000,0.0000,0.6055,-0.4122,-0.4520,-0.5089,9.5600,-0.4800,2.5000,-0.1000,0.0000,0.0000,-0.5128,0.4590,0.4427,0.5746,9.6600,0.2900,1.8700,0.0000,0.0000,0.0000,0.2305,-0.4135,-0.8656,-0.1627,5.2200,0.9400,-8.1900,0.0000,0.0000,0.0000
119635,0,0,1,-5.0757,-0.1099,-2.6367,2.3291,-0.0073,0.0110,-6.8994,-2.2852,0.1389,9.7396,0.0072,-0.1221,-3.5400,-3.9368,0.1389,9.7396,0.0072,-0.1221,-3.5400,-3.9368,9.6814,-0.1263,0.9558,-0.0653,-0.0516,-0.0008,0.0845,0.6675,-0.0929,0.7339,0.5110,0.4792,-0.4816,0.5264,9.7200,-0.1000,0.8800,0.0000,0.0000,0.0000,0.6156,0.3982,-0.5007,0.4599,9.5900,0.2900,1.8100,0.0000,0.0000,0.0000,0.2320,-0.2911,-0.9277,0.0267,4.0100,-1.8400,-8.7100,0.0000,0.0000,0.0000,0.6055,-0.4122,-0.4520,-0.5089,9.5600,-0.4800,2.5000,-0.1000,0.0000,0.0000,-0.5127,0.4590,0.4427,0.5746,9.6400,0.3100,1.8500,0.0000,0.0000,0.0000,0.2305,-0.4135,-0.8656,-0.1627,5.2800,0.9100,-8.2500,0.0000,0.0000,0.0000
119636,0,0,1,-5.0757,-0.1099,-2.6367,2.3291,-0.0055,0.0092,-6.8994,-2.2852,0.0862,9.7252,0.0048,0.0000,-3.4485,-3.8757,0.0862,9.7252,0.0048,0.0000,-3.4485,-3.8757,9.6814,-0.1263,0.9558,-0.0653,-0.0516,-0.0008,0.0845,0.6675,-0.0929,0.7339,0.5110,0.4792,-0.4816,0.5264,9.7200,-0.1000,0.8800,0.0000,0.0000,0.0000,0.6156,0.3982,-0.5008,0.4599,9.6200,0.2500,1.7800,0.0000,0.0000,0.0000,0.2320,-0.2911,-0.9277,0.0267,4.0300,-1.8300,-8.7100,0.0000,0.0000,0.0000,0.6054,-0.4125,-0.4518,-0.5090,9.4600,-0.4600,2.4300,-0.1000,0.0000,0.0000,-0.5127,0.4590,0.4427,0.5746,9.6400,0.3100,1.8500,0.0000,0.0000,0.0000,0.2305,-0.4135,-0.8656,-0.1627,5.2700,0.9000,-8.3000,0.0000,0.0000,0.0000
119637,0,0,1,-5.0757,-0.1099,-2.6367,2.3071,-0.0165,0.0073,-6.8774,-2.2852,0.1030,9.7013,-0.0120,0.0305,-3.5095,-3.9673,0.1030,9.7013,-0.0120,0.0305,-3.5095,-3.9673,9.6814,-0.1263,0.9558,-0.0653,-0.0516,-0.0008,0.0845,0.6675,-0.0929,0.7339,0.5111,0.4792,-0.4816,0.5264,9.7100,-0.1600,0.8900,0.0000,0.0000,0.0000,0.6156,0.3981,-0.5008,0.4599,9.6200,0.2100,1.7700,0.0000,0.0000,0.0000,0.2320,-0.2911,-0.9277,0.0267,4.0400,-1.8000,-8.7300,0.0000,0.0000,0.0000,0.6054,-0.4125,-0.4518,-0.5090,9.4600,-0.4600,2.4300,-0.1000,0.0000,0.0000,-0.5127,0.4590,0.4428,0.5747,9.6400,0.3100,1.8300,0.0000,0.0000,0.0000,0.2305,-0.4135,-0.8656,-0.1627,5.1900,0.8700,-8.2500,0.0000,0.0000,0.0000
119638,0,0,1,-5.0537,-0.1318,-2.6147,2.3071,0.0110,0.0330,-6.8774,-2.2852,0.0670,9.7348,-0.0072,0.0305,-3.4790,-4.2419,0.0670,9.7348,-0.0072,0.0305,-3.4790,-4.2419,9.6754,-0.2245,1.0371,-0.0634,-0.0518,0.0005,0.0846,0.6676,-0.0930,0.7338,0.5111,0.4792,-0.4816,0.5263,9.6800,-0.1600,0.8500,0.0000,0.0000,0.0000,0.6156,0.3981,-0.5008,0.4599,9.6200,0.2100,1.7700,0.0000,0.0000,0.0000,0.2320,-0.2911,-0.9277,0.0267,4.0600,-1.8000,-8.7200,0.0000,0.0000,0.0000,0.6053,-0.4126,-0.4517,-0.5091,9.5000,-0.3000,2.3900,-0.1000,0.0000,0.0000,-0.5126,0.4590,0.4428,0.5747,9.6200,0.2800,1.8200,0.0000,0.0000,0.0000,0.2305,-0.4135,-0.8656,-0.1627,5.1700,0.8600,-8.1800,0.0000,0.0000,0.0000
119639,0,0,1,-5.0317,-0.1099,-2.6147,2.3071,0.0092,0.0183,-6.8774,-2.2632,0.0886,9.7492,-0.0263,-0.0610,-3.5706,-4.1199,0.0886,9.7492,-0.0263,-0.0610,-3.5706,-4.1199,9.6754,-0.2245,1.0371,-0.0634,-0.0518,0.0005,0.0846,0.6676,-0.0930,0.7338,0.5112,0.4791,-0.4817,0.5263,9.7400,-0.1500,0.8400,0.0000,0.0000,0.0000,0.6156,0.3981,-0.5008,0.4599,9.6200,0.2500,1.8100,0.0000,0.0000,0.0000,0.2321,-0.2911,-0.9277,0.0267,4.0300,-1.7800,-8.7400,0.0000,0.0000,0.0000,0.6052,-0.4127,-0.4516,-0.5091,9.4600,-0.3400,2.3900,-0.1000,0.0000,0.0000,-0.5125,0.4590,0.4428,0.5748,9.6500,0.2500,1.8200,0.0000,0.0000,0.0000,0.2305,-0.4135,-0.8656,-0.1627,5.1700,0.8600,-8.1800,0.0000,0.0000,0.0000
119640,0,0,1,-5.0317,-0.1099,-2.6147,2.3071,0.0110,0.0000,-6.8555,-2.2632,0.0575,9.6965,-0.0048,-0.1526,-3.2959,-4.3945,0.0575,9.6965,-0.0048,-0.1526,-3.2959,-4.3945,9.6911,-0.2720,1.0857,-0.0646,-0.0503,0.0012,0.0847,0.6677,-0.0932,0.7337,0.5112,0.4791,-0.4817,0.5262,9.7700,-0.2000,0.8400,0.0000,0.0000,0.0000,0.6156,0.3981,-0.5008,0.4600,9.6300,0.2800,1.8100,0.0000,0.0000,0.0000,0.2321,-0.2911,-0.9277,0.0267,4.0500,-1.7900,-8.7300,0.0000,0.0000,0.0000,0.6052,-0.4128,-0.4516,-0.5092,9.5100,-0.3200,2.3700,-0.1000,0.0000,0.0000,-0.5125,0.4590,0.4428,0.5749,9.6000,0.2700,1.7900,0.0000,0.0000,0.0000,0.2305,-0.4135,-0.8656,-0.1627,5.2500,0.8300,-8.1600,0.0000,0.0000,0.0000
119641,0,0,1,-5.0317,-0.1099,-2.6147,2.3071,-0.0128,0.0092,-6.8555,-2.2632,0.0622,9.7205,0.0144,-0.1526,-3.3264,-4.1504,0.0622,9.7205,0.0144,-0.1526,-3.3264,-4.1504,9.6911,-0.2720,1.0857,-0.0646,-0.0503,0.0012,0.0847,0.6677,-0.0932,0.7337,0.5112,0.4791,-0.4817,0.5262,9.7700,-0.2000,0.8400,0.0000,0.0000,0.0000,0.6156,0.3981,-0.5008,0.4600,9.6100,0.2800,1.7800,0.0000,0.0000,0.0000,0.2321,-0.2911,-0.9277,0.0267,4.0500,-1.7900,-8.7300,0.0000,0.0000,0.0000,0.6051,-0.4129,-0.4515,-0.5092,9.4400,-0.5300,2.4500,0.0000,0.0000,0.0000,-0.5125,0.4590,0.4428,0.5749,9.6000,0.2700,1.7900,0.0000,0.0000,0.0000,0.2305,-0.4135,-0.8656,-0.1628,5.2800,0.8600,-8.2400,0.0000,0.0000,0.0000
119642,0,0,1,-5.0098,-0.1099,-2.6147,2.2852,0.0055,-0.0201,-6.8555,-2.2632,0.1101,9.8450,0.0096,-0.0916,-3.4180,-4.2419,0.1101,9.8450,0.0096,-0.0916,-3.4180,-4.2419,9.6911,-0.2720,1.0857,-0.0646,-0.0503,0.0012,0.0847,0.6677,-0.0932,0.7337,0.5113,0.4791,-0.4817,0.5262,9.7500,-0.1700,0.8200,0.0000,0.0000,0.0000,0.6156,0.3980,-0.5008,0.4600,9.6400,0.2800,1.7700,0.0000,0.0000,0.0000,0.2321,-0.2911,-0.9277,0.0267,4.0600,-1.8100,-8.7300,0.0000,0.0000,0.0000,0.6051,-0.4130,-0.4514,-0.5092,9.5300,-0.3300,2.4300,-0.1000,0.0000,0.0000,-0.5125,0.4590,0.4428,0.5749,9.6000,0.2700,1.7900,0.0000,0.0000,0.0000,0.2305,-0.4135,-0.8656,-0.1628,5.2000,0.8900,-8.2400,0.0000,0.0000,0.0000
119643,0,0,1,-5.0098,-0.1099,-2.6147,2.2852,0.0037,0.0092,-6.8335,-2.2632,0.0670,9.7588,0.0024,-0.3357,-3.3569,-4.3030,0.0670,9.7588,0.0024,-0.3357,-3.3569,-4.3030,9.7310,-0.2577,0.9566,-0.0765,-0.0540,0.0007,0.0849,0.6678,-0.0933,0.7336,0.5113,0.4791,-0.4817,0.5262,9.7100,-0.2200,0.7800,0.0000,0.0000,0.0000,0.6156,0.3980,-0.5008,0.4600,9.6400,0.2800,1.7700,0.0000,0.0000,0.0000,0.2321,-0.2911,-0.9277,0.0267,4.0700,-1.8100,-8.7100,0.0000,0.0000,0.0000,0.6051,-0.4130,-0.4514,-0.5092,9.5300,-0.3300,2.4300,-0.1000,0.0000,0.0000,-0.5123,0.4589,0.4428,0.5750,9.6300,0.2700,1.7100,0.0000,0.0000,0.0000,0.2305,-0.4135,-0.8656,-0.1628,5.1700,0.9200,-8.2200,0.0000,0.0000,0.0000
119644,0,0,1,-5.0098,-0.1099,-2.6147,2.2852,-0.0146,0.0146,-6.8335,-2.2632,0.0814,9.7540,0.0096,0.0000,-3.3569,-4.2114,0.0814,9.7540,0.0096,0.0000,-3.3569,-4.2114,9.7310,-0.2577,0.9566,-0.0765,-0.0540,0.0007,0.0849,0.6678,-0.0933,0.7336,0.5114,0.4790,-0.4817,0.5262,9.7200,-0.2200,0.7900,0.0000,0.0000,0.0000,0.6156,0.3980,-0.5009,0.4600,9.6500,0.3100,1.7600,0.0000,0.0000,0.0000,0.2321,-0.2911,-0.9277,0.0267,4.0800,-1.7900,-8.7000,0.0000,0.0000,0.0000,0.6051,-0.4130,-0.4514,-0.5092,9.5300,-0.3300,2.4300,-0.1000,0.0000,0.0000,-0.5123,0.4589,0.4428,0.5750,9.6500,0.2700,1.6800,0.0000,0.0000,0.0000,0.2305,-0.4135,-0.8656,-0.1628,5.1700,0.9200,-8.2200,0.0000,0.0000,0.0000
119645,0,0,1,-4.9878,-0.0879,-2.6147,2.2632,-0.0146,-0.0256,-6.8335,-2.2632,0.1149,9.8210,0.0335,-0.0305,-3.3264,-4.1504,0.1149,9.8210,0.0335,-0.0305,-3.3264,-4.1504,9.6414,-0.2324,0.8992,-0.0733,-0.0562,0.0011,0.0850,0.6679,-0.0935,0.7335,0.5114,0.4790,-0.4817,0.5261,9.7300,-0.2000,0.7800,0.0000,0.0000,0.0000,0.6156,0.3980,-0.5009,0.4600,9.6200,0.3500,1.7600,0.0000,0.0000,0.0000,0.2321,-0.2911,-0.9277,0.0267,4.0800,-1.7900,-8.7000,0.0000,0.0000,0.0000,0.6050,-0.4132,-0.4513,-0.5093,9.5000,-0.3800,2.3600,-0.1000,0.0000,0.0000,-0.5122,0.4590,0.4428,0.5751,9.6300,0.3300,1.6800,0.0000,0.0000,0.0000,0.2305,-0.4135,-0.8656,-0.1628,5.2000,0.9100,-8.2200,0.0000,0.0000,0.0000
119646,0,0,1,-5.0098,-0.1099,-2.6367,2.2632,-0.0110,0.0073,-6.8335,-2.2632,0.1317,9.8306,0.0215,-0.0305,-3.5095,-4.2114,0.1317,9.8306,0.0215,-0.0305,-3.5095,-4.2114,9.6414,-0.2324,0.8992,-0.0733,-0.0562,0.0011,0.0850,0.6679,-0.0935,0.7335,0.5114,0.4790,-0.4817,0.5261,9.7300,-0.2000,0.7800,0.0000,0.0000,0.0000,0.6156,0.3979,-0.5009,0.4600,9.6100,0.3400,1.7500,0.0000,0.0000,0.0000,0.2322,-0.2910,-0.9277,0.0267,4.0500,-1.7700,-8.7200,0.0000,0.0000,0.0000,0.6049,-0.4133,-0.4512,-0.5094,9.4500,-0.3900,2.3300,-0.1000,0.0000,0.0000,-0.5122,0.4590,0.4428,0.5751,9.6300,0.3300,1.6800,0.0000,0.0000,0.0000,0.2305,-0.4135,-0.8656,-0.1628,5.2300,0.9200,-8.2400,0.0000,0.0000,0.0000
119647,0,0,1,-5.0098,-0.1099,-2.6367,2.2632,-0.0183,-0.0110,-6.8335,-2.2632,0.1245,9.8162,0.0239,-0.0610,-3.6621,-4.3945,0.1245,9.8162,0.0239,-0.0610,-3.6621,-4.3945,9.6414,-0.2324,0.8992,-0.0733,-0.0562,0.0011,0.0850,0.6679,-0.0935,0.7335,0.5115,0.4789,-0.4817,0.5261,9.7900,-0.2500,0.8000,0.0000,0.0000,0.0000,0.6156,0.3979,-0.5009,0.4600,9.5800,0.3100,1.7600,0.0000,0.0000,0.0000,0.2322,-0.2910,-0.9276,0.0267,4.0200,-1.7900,-8.7500,0.0000,0.0000,0.0000,0.6048,-0.4134,-0.4511,-0.5094,9.4600,-0.3400,2.3100,-0.1000,0.0000,0.0000,-0.5121,0.4590,0.4428,0.5752,9.6600,0.3600,1.7100,0.0000,0.0000,0.0000,0.2305,-0.4135,-0.8656,-0.1629,5.1700,0.9000,-8.2500,0.0000,0.0000,0.0000
119648,0,0,1,-5.0098,-0.1099,-2.6367,2.2632,-0.0110,-0.0128,-6.8115,-2.2632,0.0958,9.7588,-0.0144,0.0916,-3.6926,-4.3640,0.0958,9.7588,-0.0144,0.0916,-3.6926,-4.3640,9.6202,-0.2362,0.9033,-0.0785,-0.0505,-0.0005,0.0851,0.6679,-0.0936,0.7334,0.5115,0.4789,-0.4817,0.5260,9.8000,-0.2200,0.7800,0.0000,0.0000,0.0000,0.6156,0.3979,-0.5009,0.4600,9.5800,0.3100,1.7600,0.0000,0.0000,0.0000,0.2322,-0.2910,-0.9276,0.0267,4.0400,-1.7900,-8.7200,0.0000,0.0000,0.0000,0.6048,-0.4134,-0.4511,-0.5094,9.4600,-0.3400,2.3100,-0.1000,0.0000,0.0000,-0.5121,0.4590,0.4428,0.5752,9.6200,0.4400,1.7200,0.0000,0.0000,0.0000,0.2305,-0.4135,-0.8656,-0.1629,5.2200,0.8800,-8.2500,0.0000,0.0000,0.0000
119649,0,0,1,-4.9878,-0.0879,-2.6367,2.2412,0.0092,-0.0092,-6.8115,-2.2632,0.1053,9.6869,-0.0168,0.1221,-3.4485,-4.3335,0.1053,9.6869,-0.0168,0.1221,-3.4485,-4.3335,9.6202,-0.2362,0.9033,-0.0785,-0.0505,-0.0005,0.0851,0.6679,-0.0936,0.7334,0.5116,0.4789,-0.4817,0.5260,9.7900,-0.2100,0.7900,0.0000,0.0000,0.0000,0.6156,0.3979,-0.5009,0.4600,9.6100,0.2900,1.7600,0.0000,0.0000,0.0000,0.2322,-0.2910,-0.9276,0.0267,4.0400,-1.7800,-8.7200,0.0000,0.0000,0.0000,0.6048,-0.4135,-0.4510,-0.5095,9.4700,-0.3400,2.3300,-0.1000,0.0000,0.0000,-0.5120,0.4590,0.4428,0.5753,9.6500,0.4600,1.7000,0.0000,0.0000,0.0000,0.2305,-0.4135,-0.8656,-0.1629,5.2200,0.8800,-8.2500,0.0000,0.0000,0.0000
119650,0,0,1,-4.9878,-0.1099,-2.6367,2.2412,-0.0128,-0.0128,-6.8115,-2.2632,0.0934,9.7731,-0.0192,0.0610,-3.5400,-4.3030,0.0934,9.7731,-0.0192,0.0610,-3.5400,-4.3030,9.6566,-0.2582,0.8348,-0.0755,-0.0555,-0.0023,0.0852,0.6680,-0.0938,0.7333,0.5116,0.4789,-0.4818,0.5260,9.7800,-0.1900,0.7700,0.0000,0.0000,0.0000,0.6156,0.3978,-0.5010,0.4600,9.6300,0.2500,1.6800,0.0000,0.0000,0.0000,0.2322,-0.2910,-0.9276,0.0267,4.0400,-1.7800,-8.7200,0.0000,0.0000,0.0000,0.6047,-0.4136,-0.4510,-0.5095,9.5200,-0.2000,2.2800,-0.1000,0.0000,0.0000,-0.5119,0.4590,0.4428,0.5754,9.6700,0.4600,1.6700,0.0000,0.0000,0.0000,0.2305,-0.4135,-0.8656,-0.1629,5.2200,0.8400,-8.2600,0.0000,0.0000,0.0000
119651,0,0,1,-4.9878,-0.1099,-2.6367,2.2412,-0.0055,-0.0128,-6.8115,-2.2632,0.0886,9.7779,0.0096,0.0000,-3.3569,-4.0894,0.0886,9.7779,0.0096,0.0000,-3.3569,-4.0894,9.6566,-0.2582,0.8348,-0.0755,-0.0555,-0.0023,0.0852,0.6680,-0.0938,0.7333,0.5116,0.4789,-0.4818,0.5260,9.7800,-0.1900,0.7700,0.0000,0.0000,0.0000,0.6156,0.3978,-0.5010,0.4600,9.6600,0.2300,1.7200,0.0000,0.0000,0.0000,0.2322,-0.2910,-0.9276,0.0267,4.0200,-1.7700,-8.7500,0.0000,0.0000,0.0000,0.6047,-0.4137,-0.4509,-0.5096,9.4700,-0.2500,2.2700,-0.1000,0.0000,0.0000,-0.5119,0.4590,0.4428,0.5754,9.6700,0.4600,1.6700,0.0000,0.0000,0.0000,0.2305,-0.4135,-0.8656,-0.1630,5.1900,0.8700,-8.3000,0.0000,0.0000,0.0000
119652,0,0,1,-5.0098,-0.1099,-2.6587,2.2412,-0.0110,-0.0055,-6.8115,-2.2632,0.0910,9.7492,-0.0455,0.2747,-3.4485,-4.2114,0.0910,9.7492,-0.0455,0.2747,-3.4485,-4.2114,9.6566,-0.2582,0.8348,-0.0755,-0.0555,-0.0023,0.0852,0.6680,-0.0938,0.7333,0.5116,0.4788,-0.4818,0.5259,9.8100,-0.1600,0.7600,0.0000,0.0000,0.0000,0.6156,0.3978,-0.5010,0.4600,9.6200,0.2400,1.7400,0.0000,0.0000,0.0000,0.2323,-0.2910,-0.9276,0.0267,4.0100,-1.7800,-8.7600,0.0000,0.0000,0.0000,0.6046,-0.4138,-0.4508,-0.5096,9.5100,-0.1600,2.2600,-0.1000,0.0000,0.0000,-0.5119,0.4590,0.4428,0.5754,9.6900,0.4200,1.6800,0.0000,0.0000,0.0000,0.2305,-0.4135,-0.8656,-0.1630,5.1700,0.8600,-8.3200,0.0000,0.0000,0.0000
119653,0,0,1,-4.9878,-0.0879,-2.6587,2.2412,0.0055,0.0055,-6.8115,-2.2632,0.1269,9.7540,-0.0239,0.0000,-3.4180,-4.4556,0.1269,9.7540,-0.0239,0.0000,-3.4180,-4.4556,9.6588,-0.2302,0.9404,-0.0713,-0.0476,0.0006,0.0853,0.6681,-0.0939,0.7332,0.5117,0.4788,-0.4818,0.5259,9.8000,-0.2100,0.7400,0.0000,0.0000,0.0000,0.6156,0.3978,-0.5010,0.4600,9.6200,0.2400,1.7400,0.0000,0.0000,0.0000,0.2323,-0.2910,-0.9276,0.0267,4.0100,-1.8000,-8.7500,0.0000,0.0000,0.0000,0.6046,-0.4138,-0.4508,-0.5096,9.5100,-0.1600,2.2600,-0.1000,0.0000,0.0000,-0.5118,0.4589,0.4428,0.5755,9.7000,0.3900,1.6600,0.0000,0.0000,0.0000,0.2305,-0.4134,-0.8656,-0.1630,5.1800,0.8700,-8.2100,0.0000,0.0000,0.0000
119654,0,0,1,-4.9878,-0.1099,-2.6587,2.2192,-0.0110,-0.0146,-6.8115,-2.2632,0.1053,9.7588,-0.0311,0.2136,-3.2959,-4.3335,0.1053,9.7588,-0.0311,0.2136,-3.2959,-4.3335,9.6588,-0.2302,0.9404,-0.0713,-0.0476,0.0006,0.0853,0.6681,-0.0939,0.7332,0.5117,0.4788,-0.4819,0.5258,9.7500,-0.2500,0.7000,0.0000,0.0000,0.0000,0.6156,0.3978,-0.5010,0.4601,9.6000,0.2200,1.7200,0.0000,0.0000,0.0000,0.2323,-0.2910,-0.9276,0.0267,4.0100,-1.8000,-8.7500,0.0000,0.0000,0.0000,0.6046,-0.4139,-0.4507,-0.5097,9.4900,-0.2500,2.3000,-0.1000,0.0000,0.0000,-0.5117,0.4589,0.4428,0.5756,9.6900,0.4000,1.6600,0.0000,0.0000,0.0000,0.2305,-0.4134,-0.8656,-0.1630,5.1800,0.8700,-8.2100,0.0000,0.0000,0.0000
119655,0,0,1,-4.9878,-0.1099,-2.6587,2.2192,0.0092,0.0128,-6.8115,-2.2632,0.1269,9.7492,-0.0192,0.2441,-3.2043,-4.5166,0.1269,9.7492,-0.0192,0.2441,-3.2043,-4.5166,9.6803,-0.1643,0.8819,-0.0668,-0.0456,0.0007,0.0855,0.6682,-0.0941,0.7331,0.5118,0.4788,-0.4819,0.5258,9.7400,-0.2800,0.6700,0.0000,0.0000,0.0000,0.6156,0.3977,-0.5010,0.4601,9.6100,0.2200,1.7300,0.0000,0.0000,0.0000,0.2323,-0.2910,-0.9276,0.0267,4.0200,-1.7800,-8.7400,0.0000,0.0000,0.0000,0.6045,-0.4140,-0.4506,-0.5097,9.4900,-0.3000,2.3700,-0.1000,0.0000,0.0000,-0.5117,0.4589,0.4428,0.5756,9.6900,0.4000,1.6600,0.0000,0.0000,0.0000,0.2305,-0.4134,-0.8656,-0.1631,5.2300,0.8400,-8.2100,0.0000,0.0000,0.0000
119656,0,0,1,-4.9878,-0.1099,-2.6587,2.2192,0.0092,0.0128,-6.8115,-2.2632,0.1125,9.8019,0.0215,0.1221,-3.1128,-4.3335,0.1125,9.8019,0.0215,0.1221,-3.1128,-4.3335,9.6803,-0.1643,0.8819,-0.0668,-0.0456,0.0007,0.0855,0.6682,-0.0941,0.7331,0.5118,0.4788,-0.4819,0.5258,9.7400,-0.2800,0.6700,0.0000,0.0000,0.0000,0.6155,0.3977,-0.5010,0.4601,9.6300,0.2300,1.7100,0.0000,0.0000,0.0000,0.2324,-0.2910,-0.9276,0.0267,4.0300,-1.7600,-8.7300,0.0000,0.0000,0.0000,0.6045,-0.4141,-0.4506,-0.5098,9.5600,-0.1800,2.3400,-0.1000,0.0000,0.0000,-0.5116,0.4589,0.4428,0.5756,9.6700,0.4500,1.7000,0.0000,0.0000,0.0000,0.2305,-0.4134,-0.8656,-0.1631,5.2500,0.8600,-8.2600,0.0000,0.0000,0.0000
119657,0,0,1,-4.9878,-0.0879,-2.6807,2.2192,0.0110,0.0183,-6.8115,-2.2632,0.1365,9.7923,-0.0311,0.2747,-2.8687,-4.2419,0.1365,9.7923,-0.0311,0.2747,-2.8687,-4.2419,9.6803,-0.1643,0.8819,-0.0668,-0.0456,0.0007,0.0855,0.6682,-0.0941,0.7331,0.5118,0.4788,-0.4819,0.5257,9.7600,-0.2800,0.6800,0.0000,0.0000,0.0000,0.6156,0.3977,-0.5011,0.4601,9.6300,0.2500,1.7100,0.0000,0.0000,0.0000,0.2324,-0.2910,-0.9276,0.0267,4.0800,-1.7800,-8.7400,0.0000,0.0000,0.0000,0.6045,-0.4141,-0.4506,-0.5098,9.5600,-0.1800,2.3400,-0.1000,0.0000,0.0000,-0.5116,0.4589,0.4428,0.5757,9.6600,0.4600,1.7600,0.0000,0.0000,0.0000,0.2305,-0.4134,-0.8655,-0.1632,5.2300,0.9000,-8.2500,0.0000,0.0000,0.0000
119658,0,0,1,-4.9878,-0.0879,-2.6807,2.1973,0.0110,-0.0146,-6.8115,-2.2632,0.1197,9.8019,0.0072,0.2441,-3.1738,-4.4556,0.1197,9.8019,0.0072,0.2441,-3.1738,-4.4556,9.6863,-0.1775,0.9021,-0.0664,-0.0483,0.0029,0.0856,0.6682,-0.0942,0.7330,0.5119,0.4787,-0.4820,0.5257,9.7500,-0.2700,0.6900,0.0000,0.0000,0.0000,0.6155,0.3976,-0.5011,0.4601,9.6300,0.2600,1.7100,0.0000,0.0000,0.0000,0.2324,-0.2910,-0.9276,0.0267,4.0900,-1.7900,-8.7000,0.0000,0.0000,0.0000,0.6044,-0.4142,-0.4505,-0.5098,9.5400,-0.1800,2.3100,-0.1000,0.0000,0.0000,-0.5115,0.4589,0.4428,0.5757,9.6500,0.4600,1.7900,0.0000,0.0000,0.0000,0.2305,-0.4134,-0.8655,-0.1632,5.1800,0.8900,-8.2300,0.0000,0.0000,0.0000
119659,0,0,1,-4.9878,-0.1099,-2.6807,2.1973,0.0037,-0.0146,-6.8115,-2.2632,0.1125,9.8019,0.0527,0.5188,-2.8992,-4.2725,0.1125,9.8019,0.0527,0.5188,-2.8992,-4.2725,9.6863,-0.1775,0.9021,-0.0664,-0.0483,0.0029,0.0856,0.6682,-0.0942,0.7330,0.5119,0.4787,-0.4820,0.5256,9.7400,-0.2800,0.6900,0.0000,0.0000,0.0000,0.6155,0.3976,-0.5011,0.4601,9.6300,0.2600,1.7100,0.0000,0.0000,0.0000,0.2324,-0.2910,-0.9276,0.0267,4.0700,-1.7900,-8.6800,0.0000,0.0000,0.0000,0.6044,-0.4143,-0.4504,-0.5099,9.5500,-0.1600,2.3200,-0.1000,0.0000,0.0000,-0.5115,0.4589,0.4428,0.5758,9.6200,0.4700,1.7800,0.0000,0.0000,0.0000,0.2305,-0.4134,-0.8655,-0.1632,5.1800,0.8900,-8.2300,0.0000,0.0000,0.0000
119660,0,0,1,-4.9878,-0.1099,-2.6807,2.1973,0.0128,0.0146,-6.7896,-2.2632,0.1269,9.8090,-0.0024,0.2136,-2.8687,-4.2114,0.1269,9.8090,-0.0024,0.2136,-2.8687,-4.2114,9.7070,-0.1529,0.8700,-0.0687,-0.0455,-0.0019,0.0857,0.6683,-0.0944,0.7329,0.5120,0.4787,-0.4820,0.5256,9.7500,-0.3300,0.7100,0.0000,0.0000,0.0000,0.6156,0.3976,-0.5011,0.4601,9.6100,0.2500,1.7000,0.0000,0.0000,0.0000,0.2324,-0.2910,-0.9276,0.0267,4.0700,-1.7900,-8.6800,0.0000,0.0000,0.0000,0.6043,-0.4144,-0.4503,-0.5099,9.5300,-0.2500,2.3400,0.0000,0.0000,0.0000,-0.5115,0.4589,0.4428,0.5758,9.6200,0.4700,1.7800,0.0000,0.0000,0.0000,0.2305,-0.4134,-0.8655,-0.1632,5.2100,0.9000,-8.2600,0.0000,0.0000,0.0000
119661,0,0,1,-4.9658,-0.0879,-2.6807,2.1973,0.0073,0.0146,-6.7896,-2.2632,0.1532,9.8282,0.0479,0.3967,-2.8992,-4.2114,0.1532,9.8282,0.0479,0.3967,-2.8992,-4.2114,9.7070,-0.1529,0.8700,-0.0687,-0.0455,-0.0019,0.0857,0.6683,-0.0944,0.7329,0.5120,0.4787,-0.4820,0.5256,9.7500,-0.3300,0.7100,0.0000,0.0000,0.0000,0.6156,0.3976,-0.5011,0.4601,9.6500,0.2600,1.7100,0.0000,0.0000,0.0000,0.2325,-0.2910,-0.9276,0.0268,4.0400,-1.8100,-8.7000,0.0000,0.0000,0.0000,0.6043,-0.4145,-0.4503,-0.5100,9.5700,-0.2100,2.3500,-0.1000,0.0000,0.0000,-0.5114,0.4589,0.4428,0.5758,9.6000,0.4900,1.7500,0.0000,0.0000,0.0000,0.2305,-0.4134,-0.8655,-0.1633,5.2700,0.8600,-8.2400,0.0000,0.0000,0.0000
119662,0,0,1,-4.9658,-0.0879,-2.6807,2.1973,-0.0073,0.0092,-6.7896,-2.2632,0.1652,9.8833,0.0527,0.4883,-2.8381,-4.2419,0.1652,9.8833,0.0527,0.4883,-2.8381,-4.2419,9.7070,-0.1529,0.8700,-0.0687,-0.0455,-0.0019,0.0857,0.6683,-0.0944,0.7329,0.5120,0.4787,-0.4820,0.5255,9.7300,-0.3500,0.7000,0.0000,0.0000,0.0000,0.6156,0.3975,-0.5011,0.4601,9.7000,0.2400,1.8000,0.0000,0.0000,0.0000,0.2325,-0.2910,-0.9276,0.0268,4.0300,-1.8300,-8.7100,0.0000,0.0000,0.0000,0.6043,-0.4146,-0.4502,-0.5100,9.5300,-0.2500,2.3800,-0.1000,0.0000,0.0000,-0.5113,0.4589,0.4428,0.5759,9.5800,0.5200,1.7600,0.0000,0.0000,0.0000,0.2305,-0.4134,-0.8655,-0.1633,5.2400,0.9000,-8.3000,0.0000,0.0000,0.0000
119663,0,0,1,-4.9658,-0.0879,-2.6807,2.1753,-0.0055,-0.0220,-6.7896,-2.2632,0.1221,9.8593,0.0431,0.3967,-2.8076,-4.1809,0.1221,9.8593,0.0431,0.3967,-2.8076,-4.1809,9.7000,-0.2161,0.9296,-0.0672,-0.0447,-0.0006,0.0858,0.6684,-0.0945,0.7328,0.5121,0.4786,-0.4821,0.5254,9.7500,-0.3400,0.7000,0.0000,0.0000,0.0000,0.6156,0.3975,-0.5011,0.4601,9.6900,0.2000,1.8400,0.0000,0.0000,0.0000,0.2325,-0.2910,-0.9276,0.0268,4.0100,-1.8300,-8.7100,0.0000,0.0000,0.0000,0.6043,-0.4146,-0.4502,-0.5100,9.5300,-0.2500,2.3800,-0.1000,0.0000,0.0000,-0.5113,0.4589,0.4428,0.5759,9.5700,0.5400,1.7800,0.0000,0.0000,0.0000,0.2305,-0.4134,-0.8655,-0.1634,5.1400,0.9600,-8.2400,0.0000,0.0000,0.0000
119664,0,0,1,-4.9878,-0.1099,-2.7026,2.1753,0.0092,0.0128,-6.7896,-2.2632,0.0742,9.8354,-0.0383,0.6104,-2.8992,-3.9978,0.0742,9.8354,-0.0383,0.6104,-2.8992,-3.9978,9.7000,-0.2161,0.9296,-0.0672,-0.0447,-0.0006,0.0858,0.6684,-0.0945,0.7328,0.5121,0.4786,-0.4821,0.5254,9.7800,-0.3200,0.7100,0.0000,0.0000,0.0000,0.6156,0.3975,-0.5011,0.4601,9.6900,0.2000,1.8400,0.0000,0.0000,0.0000,0.2326,-0.2910,-0.9276,0.0268,4.0000,-1.8300,-8.7100,0.0000,0.0000,0.0000,0.6042,-0.4147,-0.4501,-0.5100,9.5300,-0.2300,2.3900,-0.1000,0.0000,0.0000,-0.5113,0.4589,0.4428,0.5760,9.5700,0.5500,1.8400,0.0000,0.0000,0.0000,0.2305,-0.4134,-0.8655,-0.1634,5.1400,0.9600,-8.2400,0.0000,0.0000,0.0000
119665,0,0,1,-4.9878,-0.1099,-2.7026,2.1753,0.0128,-0.0037,-6.7896,-2.2632,0.1460,9.8713,0.0694,0.5493,-2.8992,-3.9978,0.1460,9.8713,0.0694,0.5493,-2.8992,-3.9978,9.7196,-0.2815,0.9373,-0.0676,-0.0435,-0.0063,0.0859,0.6684,-0.0946,0.7327,0.5122,0.4786,-0.4821,0.5254,9.7900,-0.3300,0.7300,0.0000,0.0000,0.0000,0.6156,0.3975,-0.5012,0.4601,9.6700,0.1900,1.8200,0.0000,0.0000,0.0000,0.2326,-0.2910,-0.9276,0.0268,4.0000,-1.8300,-8.7100,0.0000,0.0000,0.0000,0.6042,-0.4148,-0.4500,-0.5101,9.5200,-0.1600,2.3500,-0.1000,0.0000,0.0000,-0.5112,0.4588,0.4429,0.5760,9.5900,0.5700,1.8700,0.0000,0.0000,0.0000,0.2305,-0.4134,-0.8655,-0.1634,5.2100,0.9200,-8.1300,0.0000,0.0000,0.0000
119666,0,0,1,-4.9658,-0.0879,-2.7026,2.1753,0.0037,-0.0128,-6.7896,-2.2632,0.1580,9.8689,0.0168,0.6409,-2.7466,-4.0588,0.1580,9.8689,0.0168,0.6409,-2.7466,-4.0588,9.7196,-0.2815,0.9373,-0.0676,-0.0435,-0.0063,0.0859,0.6684,-0.0946,0.7327,0.5122,0.4786,-0.4821,0.5254,9.7900,-0.3300,0.7300,0.0000,0.0000,0.0000,0.6156,0.3974,-0.5012,0.4601,9.6600,0.1500,1.8000,0.0000,0.0000,0.0000,0.2326,-0.2910,-0.9275,0.0268,4.0000,-1.8300,-8.7600,0.0000,0.0000,0.0000,0.6042,-0.4149,-0.4499,-0.5101,9.4700,-0.2400,2.3900,0.0000,0.0000,0.0000,-0.5112,0.4588,0.4429,0.5760,9.5900,0.5700,1.8700,0.0000,0.0000,0.0000,0.2305,-0.4134,-0.8655,-0.1635,5.2500,0.9500,-8.2000,0.0000,0.0000,0.0000
119667,0,0,1,-4.9658,-0.0879,-2.7026,2.1753,-0.0055,0.0146,-6.7896,-2.2632,0.1365,9.8689,0.0311,0.5493,-2.5940,-4.0588,0.1365,9.8689,0.0311,0.5493,-2.5940,-4.0588,9.7196,-0.2815,0.9373,-0.0676,-0.0435,-0.0063,0.0859,0.6684,-0.0946,0.7327,0.5122,0.4786,-0.4821,0.5253,9.7900,-0.3200,0.7400,0.0000,0.0000,0.0000,0.6156,0.3974,-0.5012,0.4601,9.6600,0.1300,1.7500,0.0000,0.0000,0.0000,0.2326,-0.2910,-0.9275,0.0268,4.0400,-1.8000,-8.7500,0.0000,0.0000,0.0000,0.6041,-0.4149,-0.4498,-0.5102,9.5300,-0.2500,2.4300,0.0000,0.0000,0.0000,-0.5112,0.4588,0.4429,0.5761,9.5700,0.5300,1.8900,0.0000,0.0000,0.0000,0.2305,-0.4134,-0.8655,-0.1635,5.2300,0.9000,-8.2500,0.0000,0.0000,0.0000
119668,0,0,1,-4.9658,-0.0879,-2.7026,2.1753,-0.0055,0.0073,-6.7896,-2.2632,0.1413,9.8761,0.0072,0.7019,-2.8687,-4.0283,0.1413,9.8761,0.0072,0.7019,-2.8687,-4.0283,9.7558,-0.2102,0.8867,-0.0691,-0.0477,-0.0065,0.0860,0.6685,-0.0948,0.7326,0.5123,0.4785,-0.4822,0.5252,9.7800,-0.3200,0.7400,0.0000,0.0000,0.0000,0.6156,0.3974,-0.5012,0.4601,9.6600,0.1300,1.7500,0.0000,0.0000,0.0000,0.2327,-0.2910,-0.9275,0.0268,4.0700,-1.7800,-8.7400,0.0000,0.0000,0.0000,0.6041,-0.4149,-0.4498,-0.5102,9.5300,-0.2500,2.4300,0.0000,0.0000,0.0000,-0.5111,0.4588,0.4429,0.5761,9.6000,0.4600,1.8900,0.0000,0.0000,0.0000,0.2305,-0.4134,-0.8655,-0.1636,5.2000,0.9000,-8.2100,0.0000,0.0000,0.0000
119669,0,0,1,-4.9658,-0.1099,-2.7026,2.1533,0.0128,0.0183,-6.7896,-2.2632,0.1652,9.8713,0.0144,0.6714,-2.8687,-3.9368,0.1652,9.8713,0.0144,0.6714,-2.8687,-3.9368,9.7558,-0.2102,0.8867,-0.0691,-0.0477,-0.0065,0.0860,0.6685,-0.0948,0.7326,0.5124,0.4785,-0.4822,0.5252,9.7900,-0.3300,0.7600,0.0000,0.0000,0.0000,0.6156,0.3974,-0.5013,0.4601,9.6400,0.1500,1.7700,0.0000,0.0000,0.0000,0.2327,-0.2910,-0.9275,0.0268,4.0700,-1.8000,-8.7400,0.0000,0.0000,0.0000,0.6041,-0.4150,-0.4497,-0.5103,9.5400,-0.2900,2.4100,-0.1000,0.0000,0.0000,-0.5111,0.4587,0.4429,0.5762,9.6100,0.4200,1.9000,0.0000,0.0000,0.0000,0.2305,-0.4134,-0.8655,-0.1636,5.2000,0.9000,-8.2100,0.0000,0.0000,0.0000
119670,0,0,1,-4.9878,-0.1099,-2.7246,2.1533,-0.0165,0.0073,-6.7896,-2.2632,0.1317,9.8426,0.0311,0.6409,-2.7771,-4.0283,0.1317,9.8426,0.0311,0.6409,-2.7771,-4.0283,9.7006,-0.2454,0.9318,-0.0694,-0.0450,-0.0062,0.0861,0.6686,-0.0949,0.7325,0.5124,0.4785,-0.4822,0.5252,9.7900,-0.3300,0.7600,0.0000,0.0000,0.0000,0.6156,0.3973,-0.5013,0.4601,9.6500,0.2200,1.7800,0.0000,0.0000,0.0000,0.2327,-0.2910,-0.9275,0.0268,4.0700,-1.8000,-8.7400,0.0000,0.0000,0.0000,0.6041,-0.4151,-0.4496,-0.5103,9.5500,-0.2900,2.4200,-0.1000,0.0000,0.0000,-0.5111,0.4587,0.4429,0.5762,9.6300,0.4100,1.9200,0.0000,0.0000,0.0000,0.2305,-0.4134,-0.8655,-0.1636,5.2500,0.9200,-8.2100,0.0000,0.0000,0.0000
119671,0,0,1,-4.9658,-0.0879,-2.7246,2.1533,-0.0183,0.0037,-6.7896,-2.2632,0.1628,9.8378,0.0335,0.7629,-2.8992,-4.0283,0.1628,9.8378,0.0335,0.7629,-2.8992,-4.0283,9.7006,-0.2454,0.9318,-0.0694,-0.0450,-0.0062,0.0861,0.6686,-0.0949,0.7325,0.5124,0.4785,-0.4823,0.5251,9.7800,-0.3100,0.7700,0.0000,0.0000,0.0000,0.6156,0.3973,-0.5013,0.4601,9.6600,0.2700,1.8200,0.0000,0.0000,0.0000,0.2328,-0.2910,-0.9275,0.0268,4.0600,-1.8400,-8.7200,0.0000,0.0000,0.0000,0.6041,-0.4152,-0.4495,-0.5103,9.5200,-0.3200,2.4300,-0.1000,0.0000,0.0000,-0.5111,0.4587,0.4429,0.5762,9.6300,0.4100,1.9200,0.0000,0.0000,0.0000,0.2305,-0.4134,-0.8655,-0.1637,5.2600,0.9200,-8.2400,0.0000,0.0000,0.0000
119672,0,0,1,-4.9658,-0.0879,-2.7246,2.1533,-0.0073,0.0037,-6.7896,-2.2412,0.1820,9.8497,0.0024,0.6409,-2.8992,-4.1199,0.1820,9.8497,0.0024,0.6409,-2.8992,-4.1199,9.7006,-0.2454,0.9318,-0.0694,-0.0450,-0.0062,0.0861,0.6686,-0.0949,0.7325,0.5125,0.4784,-0.4823,0.5250,9.7900,-0.3000,0.7600,0.0000,0.0000,0.0000,0.6156,0.3972,-0.5014,0.4601,9.6500,0.2800,1.8400,0.0000,0.0000,0.0000,0.2328,-0.2910,-0.9275,0.0268,4.0700,-1.8300,-8.7100,0.0000,0.0000,0.0000,0.6040,-0.4153,-0.4494,-0.5104,9.5500,-0.2500,2.4300,-0.1000,0.0000,0.0000,-0.5110,0.4587,0.4429,0.5763,9.6400,0.3600,1.8800,0.0000,0.0000,0.0000,0.2305,-0.4134,-0.8655,-0.1637,5.2700,0.9200,-8.2300,0.0000,0.0000,0.0000
119673,0,0,1,-4.9658,-0.0879,-2.7246,2.1533,0.0000,-0.0201,-6.7896,-2.2412,0.1389,9.8258,-0.0168,0.7324,-2.8076,-4.0588,0.1389,9.8258,-0.0168,0.7324,-2.8076,-4.0588,9.7441,-0.2365,0.9294,-0.0661,-0.0365,-0.0073,0.0863,0.6686,-0.0950,0.7324,0.5125,0.4784,-0.4824,0.5249,9.7900,-0.3100,0.7700,0.0000,0.0000,0.0000,0.6156,0.3972,-0.5014,0.4601,9.6500,0.2800,1.8400,0.0000,0.0000,0.0000,0.2328,-0.2910,-0.9275,0.0268,4.0700,-1.8100,-8.7200,0.0000,0.0000,0.0000,0.6040,-0.4153,-0.4494,-0.5104,9.5500,-0.2500,2.4300,-0.1000,0.0000,0.0000,-0.5110,0.4587,0.4429,0.5763,9.6100,0.3700,1.8900,0.0000,0.0000,0.0000,0.2305,-0.4134,-0.8655,-0.1637,5.2700,0.9200,-8.2300,0.0000,0.0000,0.0000
119674,0,0,1,-4.9658,-0.0879,-2.7246,2.1313,0.0055,-0.0073,-6.7896,-2.2412,0.1867,9.8713,0.0144,0.9155,-2.6550,-3.8757,0.1867,9.8713,0.0144,0.9155,-2.6550,-3.8757,9.7441,-0.2365,0.9294,-0.0661,-0.0365,-0.0073,0.0863,0.6686,-0.0950,0.7324,0.5126,0.4783,-0.4825,0.5249,9.8000,-0.2800,0.7700,0.0000,0.0000,0.0000,0.6156,0.3972,-0.5014,0.4601,9.6700,0.2700,1.8600,0.0000,0.0000,0.0000,0.2328,-0.2910,-0.9275,0.0268,4.0700,-1.8100,-8.7200,0.0000,0.0000,0.0000,0.6040,-0.4154,-0.4494,-0.5104,9.4700,-0.4200,2.4600,0.0000,0.0000,0.0000,-0.5110,0.4587,0.4429,0.5763,9.6100,0.3700,1.8900,0.0000,0.0000,0.0000,0.2305,-0.4134,-0.8654,-0.1638,5.2400,0.9200,-8.2200,0.0000,0.0000,0.0000
119675,0,0,1,-4.9658,-0.1099,-2.7246,2.1313,0.0055,0.0146,-6.7896,-2.2412,0.1125,9.8138,0.0192,1.0376,-2.4719,-3.9368,0.1125,9.8138,0.0192,1.0376,-2.4719,-3.9368,9.7159,-0.2138,0.9359,-0.0653,-0.0402,-0.0072,0.0864,0.6687,-0.0951,0.7324,0.5126,0.4783,-0.4825,0.5249,9.8000,-0.2800,0.7700,0.0000,0.0000,0.0000,0.6156,0.3972,-0.5014,0.4601,9.6600,0.2900,1.8600,0.0000,0.0000,0.0000,0.2328,-0.2910,-0.9275,0.0268,4.0800,-1.7900,-8.7200,0.0000,0.0000,0.0000,0.6039,-0.4155,-0.4493,-0.5105,9.5400,-0.3600,2.5000,-0.1000,0.0000,0.0000,-0.5109,0.4587,0.4429,0.5764,9.6100,0.3900,1.9100,0.0000,0.0000,0.0000,0.2306,-0.4134,-0.8654,-0.1638,5.2600,0.8900,-8.2000,0.0000,0.0000,0.0000
119676,0,0,1,-4.9658,-0.0879,-2.7466,2.1313,-0.0055,-0.0183,-6.7896,-2.2412,0.1820,9.8809,0.0551,0.7324,-2.7466,-3.7537,0.1820,9.8809,0.0551,0.7324,-2.7466,-3.7537,9.7159,-0.2138,0.9359,-0.0653,-0.0402,-0.0072,0.0864,0.6687,-0.0951,0.7324,0.5126,0.4783,-0.4825,0.5248,9.7800,-0.3200,0.7700,0.0000,0.0000,0.0000,0.6156,0.3972,-0.5015,0.4601,9.6500,0.3200,1.8600,0.0000,0.0000,0.0000,0.2329,-0.2910,-0.9275,0.0268,4.0700,-1.7900,-8.7300,0.0000,0.0000,0.0000,0.6039,-0.4155,-0.4492,-0.5105,9.5000,-0.3200,2.4400,-0.1000,0.0000,0.0000,-0.5109,0.4587,0.4429,0.5764,9.6100,0.3900,1.9100,0.0000,0.0000,0.0000,0.2306,-0.4134,-0.8654,-0.1638,5.2600,0.9300,-8.1800,0.0000,0.0000,0.0000
119677,0,0,1,-4.9658,-0.0879,-2.7466,2.1313,-0.0165,0.0238,-6.7896,-2.2412,0.1460,9.8186,0.0239,0.6104,-2.8381,-3.8147,0.1460,9.8186,0.0239,0.6104,-2.8381,-3.8147,9.7159,-0.2138,0.9359,-0.0653,-0.0402,-0.0072,0.0864,0.6687,-0.0951,0.7324,0.5127,0.4783,-0.4826,0.5247,9.7600,-0.3000,0.7500,0.0000,0.0000,0.0000,0.6156,0.3971,-0.5015,0.4601,9.6600,0.3100,1.8400,0.0000,0.0000,0.0000,0.2329,-0.2910,-0.9275,0.0269,4.0900,-1.8000,-8.7300,0.0000,0.0000,0.0000,0.6039,-0.4156,-0.4491,-0.5106,9.5100,-0.2600,2.3800,-0.1000,0.0000,0.0000,-0.5108,0.4587,0.4429,0.5765,9.5900,0.4200,1.9100,0.0000,0.0000,0.0000,0.2306,-0.4133,-0.8654,-0.1639,5.2600,0.9400,-8.1900,0.0000,0.0000,0.0000
119678,0,0,1,-4.9658,-0.0879,-2.7466,2.1313,-0.0037,0.0000,-6.7896,-2.2412,0.0503,9.8186,-0.0215,0.8545,-2.8687,-3.9062,0.0503,9.8186,-0.0215,0.8545,-2.8687,-3.9062,9.7473,-0.1581,0.9697,-0.0632,-0.0404,-0.0070,0.0865,0.6688,-0.0952,0.7323,0.5128,0.4782,-0.4826,0.5246,9.7500,-0.3500,0.7900,0.0000,0.0000,0.0000,0.6156,0.3971,-0.5015,0.4601,9.6600,0.3100,1.8400,0.0000,0.0000,0.0000,0.2329,-0.2910,-0.9275,0.0269,4.0800,-1.8100,-8.7300,0.0000,0.0000,0.0000,0.6039,-0.4156,-0.4491,-0.5106,9.5100,-0.2600,2.3800,-0.1000,0.0000,0.0000,-0.5107,0.4587,0.4429,0.5765,9.6100,0.4400,1.9100,0.0000,0.0000,0.0000,0.2306,-0.4133,-0.8654,-0.1639,5.2600,0.9400,-8.1900,0.0000,0.0000,0.0000
119679,0,0,1,-4.9658,-0.0879,-2.7466,2.1313,0.0073,0.0055,-6.7896,-2.2412,0.1389,9.8019,0.0862,0.6104,-2.7466,-3.7231,0.1389,9.8019,0.0862,0.6104,-2.7466,-3.7231,9.7473,-0.1581,0.9697,-0.0632,-0.0404,-0.0070,0.0865,0.6688,-0.0952,0.7323,0.5128,0.4782,-0.4827,0.5246,9.7400,-0.2500,0.7700,-0.1000,0.0000,0.0000,0.6156,0.3971,-0.5015,0.4601,9.6500,0.3300,1.8200,0.0000,0.0000,0.0000,0.2330,-0.2909,-0.9275,0.0269,4.0600,-1.8100,-8.7100,0.0000,0.0000,0.0000,0.6038,-0.4157,-0.4491,-0.5106,9.5000,-0.3000,2.3900,-0.1000,0.0000,0.0000,-0.5107,0.4587,0.4429,0.5766,9.5800,0.4700,1.9100,0.0000,0.0000,0.0000,0.2306,-0.4133,-0.8654,-0.1639,5.2100,0.9900,-8.2000,0.0000,0.0000,0.0000
119680,0,0,1,-4.9658,-0.0879,-2.7466,2.1313,0.0000,-0.0018,-6.7896,-2.2412,0.0958,9.7827,0.0239,0.6409,-2.9297,-3.8147,0.0958,9.7827,0.0239,0.6409,-2.9297,-3.8147,9.7124,-0.1730,0.9452,-0.0674,-0.0400,-0.0083,0.0866,0.6688,-0.0954,0.7322,0.5128,0.4782,-0.4827,0.5246,9.7400,-0.2500,0.7700,-0.1000,0.0000,0.0000,0.6156,0.3971,-0.5015,0.4601,9.6500,0.2800,1.8000,0.0000,0.0000,0.0000,0.2330,-0.2909,-0.9275,0.0269,4.0600,-1.8100,-8.7100,0.0000,0.0000,0.0000,0.6038,-0.4158,-0.4490,-0.5106,9.4700,-0.3200,2.4300,0.0000,0.0000,0.0000,-0.5106,0.4587,0.4429,0.5767,9.5600,0.4900,1.9100,0.0000,0.0000,0.0000,0.2306,-0.4133,-0.8654,-0.1640,5.2400,0.9800,-8.1900,0.0000,0.0000,0.0000
119681,0,0,1,-4.9438,-0.0659,-2.7466,2.1094,-0.0092,-0.0110,-6.7896,-2.2412,0.1221,9.7683,0.0575,0.7935,-2.5330,-3.6926,0.1221,9.7683,0.0575,0.7935,-2.5330,-3.6926,9.7124,-0.1730,0.9452,-0.0674,-0.0400,-0.0083,0.0866,0.6688,-0.0954,0.7322,0.5129,0.4781,-0.4827,0.5245,9.7600,-0.2600,0.8200,-0.1000,0.0000,0.0000,0.6156,0.3971,-0.5016,0.4601,9.6100,0.2500,1.7600,0.0000,0.0000,0.0000,0.2330,-0.2909,-0.9275,0.0269,4.0900,-1.8100,-8.7000,0.0000,0.0000,0.0000,0.6037,-0.4159,-0.4489,-0.5107,9.4100,-0.4400,2.5200,0.0000,0.0000,0.0000,-0.5106,0.4587,0.4429,0.5767,9.5600,0.4900,1.9100,0.0000,0.0000,0.0000,0.2306,-0.4133,-0.8654,-0.1640,5.2400,0.9700,-8.1800,0.0000,0.0000,0.0000
119682,0,0,1,-4.9658,-0.0879,-2.7686,2.1094,-0.0073,0.0165,-6.7896,-2.2412,0.1413,9.7779,0.0287,0.7019,-2.5635,-3.8757,0.1413,9.7779,0.0287,0.7019,-2.5635,-3.8757,9.7124,-0.1730,0.9452,-0.0674,-0.0400,-0.0083,0.0866,0.6688,-0.0954,0.7322,0.5130,0.4781,-0.4828,0.5244,9.7500,-0.2600,0.8200,-0.1000,0.0000,0.0000,0.6156,0.3970,-0.5016,0.4601,9.5800,0.2400,1.7500,0.0000,0.0000,0.0000,0.2330,-0.2909,-0.9275,0.0269,4.0900,-1.8100,-8.7200,0.0000,0.0000,0.0000,0.6037,-0.4159,-0.4489,-0.5107,9.4100,-0.4400,2.5200,0.0000,0.0000,0.0000,-0.5106,0.4587,0.4429,0.5767,9.5600,0.5100,1.9100,0.0000,0.0000,0.0000,0.2306,-0.4133,-0.8654,-0.1640,5.2200,0.9500,-8.2100,0.0000,0.0000,0.0000
119683,0,0,1,-4.9658,-0.0879,-2.7686,2.1094,-0.0110,-0.0183,-6.7896,-2.2412,0.1269,9.7492,0.0455,0.6714,-2.8687,-3.9978,0.1269,9.7492,0.0455,0.6714,-2.8687,-3.9978,9.7092,-0.1419,0.9232,-0.0618,-0.0408,-0.0041,0.0867,0.6689,-0.0955,0.7321,0.5131,0.4780,-0.4829,0.5243,9.7600,-0.2600,0.8100,-0.1000,0.0000,0.0000,0.6156,0.3970,-0.5016,0.4601,9.5800,0.2400,1.7500,0.0000,0.0000,0.0000,0.2331,-0.2909,-0.9275,0.0269,4.0700,-1.8100,-8.7000,0.0000,0.0000,0.0000,0.6037,-0.4160,-0.4489,-0.5107,9.4200,-0.4500,2.5300,0.0000,0.0000,0.0000,-0.5105,0.4587,0.4429,0.5768,9.5800,0.5000,1.9500,0.0000,0.0000,0.0000,0.2306,-0.4133,-0.8654,-0.1641,5.2300,0.9200,-8.1700,0.0000,0.0000,0.0000
119684,0,0,1,-4.9658,-0.0879,-2.7686,2.1094,0.0073,0.0110,-6.7896,-2.2412,0.1077,9.7540,0.0479,0.6409,-2.7771,-3.8452,0.1077,9.7540,0.0479,0.6409,-2.7771,-3.8452,9.7092,-0.1419,0.9232,-0.0618,-0.0408,-0.0041,0.0867,0.6689,-0.0955,0.7321,0.5132,0.4779,-0.4829,0.5242,9.7500,-0.2300,0.8100,-0.1000,0.0000,0.0000,0.6156,0.3970,-0.5016,0.4601,9.5800,0.1700,1.7200,0.0000,0.0000,0.0000,0.2331,-0.2909,-0.9274,0.0269,4.0900,-1.8000,-8.7000,0.0000,0.0000,0.0000,0.6036,-0.4161,-0.4488,-0.5108,9.4000,-0.4700,2.5300,-0.1000,0.0000,0.0000,-0.5105,0.4587,0.4429,0.5768,9.5900,0.5000,1.9600,0.0000,0.0000,0.0000,0.2306,-0.4133,-0.8654,-0.1641,5.2200,0.9200,-8.2100,0.0000,0.0000,0.0000
119685,0,0,1,-4.9658,-0.0879,-2.7686,2.1094,0.0018,0.0146,-6.7896,-2.2412,0.1676,9.7875,0.0670,0.7629,-2.9907,-3.8147,0.1676,9.7875,0.0670,0.7629,-2.9907,-3.8147,9.7298,-0.2141,0.9140,-0.0580,-0.0384,-0.0058,0.0868,0.6689,-0.0956,0.7320,0.5132,0.4779,-0.4829,0.5242,9.7500,-0.2300,0.8100,-0.1000,0.0000,0.0000,0.6156,0.3970,-0.5016,0.4601,9.5800,0.1500,1.7000,0.0000,0.0000,0.0000,0.2331,-0.2909,-0.9274,0.0269,4.0900,-1.8000,-8.7000,0.0000,0.0000,0.0000,0.6036,-0.4162,-0.4487,-0.5108,9.5200,-0.1800,2.4500,-0.1000,0.0000,0.0000,-0.5104,0.4587,0.4429,0.5769,9.5500,0.5000,1.9500,0.0000,0.0000,0.0000,0.2306,-0.4133,-0.8654,-0.1641,5.2200,0.9200,-8.2100,0.0000,0.0000,0.0000
119686,0,0,1,-4.9438,-0.0659,-2.7686,2.1094,0.0055,-0.0110,-6.7676,-2.2412,0.0670,9.6869,0.0239,0.6409,-2.8992,-3.9062,0.0670,9.6869,0.0239,0.6409,-2.8992,-3.9062,9.7298,-0.2141,0.9140,-0.0580,-0.0384,-0.0058,0.0868,0.6689,-0.0956,0.7320,0.5133,0.4779,-0.4830,0.5241,9.7400,-0.2600,0.8200,-0.1000,0.0000,0.0000,0.6156,0.3970,-0.5017,0.4601,9.5800,0.1500,1.7300,0.0000,0.0000,0.0000,0.2331,-0.2909,-0.9274,0.0269,4.1000,-1.7900,-8.7100,0.0000,0.0000,0.0000,0.6035,-0.4163,-0.4486,-0.5109,9.3100,-0.4900,2.4400,-0.1000,0.0000,0.0000,-0.5104,0.4587,0.4429,0.5769,9.5500,0.5000,1.9500,0.0000,0.0000,0.0000,0.2306,-0.4133,-0.8654,-0.1641,5.2400,0.9400,-8.2200,0.0000,0.0000,0.0000
119687,0,0,1,-4.9438,-0.0879,-2.7686,2.0874,-0.0128,0.0000,-6.7676,-2.2412,0.0934,9.7779,0.1006,0.6714,-2.7466,-3.9368,0.0934,9.7779,0.1006,0.6714,-2.7466,-3.9368,9.7298,-0.2141,0.9140,-0.0580,-0.0384,-0.0058,0.0868,0.6689,-0.0956,0.7320,0.5133,0.4778,-0.4831,0.5240,9.7100,-0.2200,0.7900,-0.1000,0.0000,0.0000,0.6156,0.3969,-0.5017,0.4601,9.5700,0.1600,1.7400,0.0000,0.0000,0.0000,0.2331,-0.2909,-0.9274,0.0269,4.0800,-1.7900,-8.7000,0.0000,0.0000,0.0000,0.6035,-0.4164,-0.4485,-0.5109,9.4700,-0.3200,2.5200,-0.1000,0.0000,0.0000,-0.5103,0.4587,0.4428,0.5769,9.5600,0.4700,1.9000,0.0000,0.0000,0.0000,0.2306,-0.4133,-0.8654,-0.1642,5.2000,0.9400,-8.2200,0.0000,0.0000,0.0000
119688,0,0,1,-4.9658,-0.0879,-2.7905,2.0874,0.0110,-0.0146,-6.7676,-2.2412,0.1149,9.7348,0.0622,0.6409,-2.7466,-3.8757,0.1149,9.7348,0.0622,0.6409,-2.7466,-3.8757,9.7096,-0.2389,0.8678,-0.0642,-0.0399,-0.0070,0.0869,0.6690,-0.0957,0.7319,0.5134,0.4778,-0.4831,0.5239,9.6900,-0.2300,0.8000,-0.1000,0.0000,0.0000,0.6156,0.3969,-0.5017,0.4601,9.5700,0.1700,1.7700,0.0000,0.0000,0.0000,0.2332,-0.2909,-0.9274,0.0269,4.0800,-1.8100,-8.7200,0.0000,0.0000,0.0000,0.6035,-0.4164,-0.4485,-0.5109,9.4700,-0.3200,2.5200,-0.1000,0.0000,0.0000,-0.5103,0.4587,0.4428,0.5770,9.6200,0.4400,1.8400,0.0000,0.0000,0.0000,0.2306,-0.4133,-0.8654,-0.1642,5.2500,0.9100,-8.1900,0.0000,0.0000,0.0000
119689,0,0,1,-4.9658,-0.0879,-2.7905,2.0874,0.0092,0.0201,-6.7676,-2.2412,0.1125,9.7540,0.0479,0.5493,-2.9297,-3.9062,0.1125,9.7540,0.0479,0.5493,-2.9297,-3.9062,9.7096,-0.2389,0.8678,-0.0642,-0.0399,-0.0070,0.0869,0.6690,-0.0957,0.7319,0.5135,0.4777,-0.4832,0.5239,9.6900,-0.1900,0.8100,-0.1000,0.0000,0.0000,0.6156,0.3969,-0.5017,0.4601,9.5700,0.1700,1.7700,0.0000,0.0000,0.0000,0.2332,-0.2909,-0.9274,0.0269,4.0900,-1.7700,-8.7000,0.0000,0.0000,0.0000,0.6035,-0.4165,-0.4484,-0.5110,9.3300,-0.4700,2.5000,-0.1000,0.0000,0.0000,-0.5102,0.4587,0.4428,0.5771,9.6300,0.4100,1.8400,0.0000,0.0000,0.0000,0.2306,-0.4133,-0.8654,-0.1642,5.2000,0.9300,-8.2200,0.0000,0.0000,0.0000
119690,0,0,1,-4.9658,-0.0879,-2.7905,2.0874,0.0110,0.0220,-6.7676,-2.2412,0.1125,9.8282,0.0168,0.5188,-2.7466,-4.0588,0.1125,9.8282,0.0168,0.5188,-2.7466,-4.0588,9.7377,-0.2450,0.9448,-0.0594,-0.0389,-0.0066,0.0871,0.6691,-0.0958,0.7319,0.5135,0.4777,-0.4832,0.5239,9.6900,-0.1900,0.8100,-0.1000,0.0000,0.0000,0.6156,0.3969,-0.5017,0.4601,9.5700,0.1800,1.7000,0.0000,0.0000,0.0000,0.2332,-0.2909,-0.9274,0.0269,4.0900,-1.7700,-8.7000,0.0000,0.0000,0.0000,0.6034,-0.4166,-0.4483,-0.5110,9.4400,-0.3000,2.5400,-0.1000,0.0000,0.0000,-0.5102,0.4587,0.4428,0.5771,9.6700,0.3900,1.8700,0.0000,0.0000,0.0000,0.2306,-0.4133,-0.8654,-0.1642,5.2000,0.9300,-8.2200,0.0000,0.0000,0.0000
119691,0,0,1,-4.9658,-0.0879,-2.7905,2.0874,0.0000,0.0146,-6.7676,-2.2412,0.0766,9.7157,0.0527,0.6714,-2.5940,-3.8757,0.0766,9.7157,0.0527,0.6714,-2.5940,-3.8757,9.7377,-0.2450,0.9448,-0.0594,-0.0389,-0.0066,0.0871,0.6691,-0.0958,0.7319,0.5136,0.4776,-0.4833,0.5238,9.7300,-0.2200,0.8100,-0.1000,0.0000,0.0000,0.6156,0.3969,-0.5017,0.4600,9.5600,0.1700,1.7300,0.0000,0.0000,0.0000,0.2332,-0.2909,-0.9274,0.0269,4.1300,-1.8000,-8.7100,0.0000,0.0000,0.0000,0.6034,-0.4166,-0.4483,-0.5110,9.4400,-0.3000,2.5400,-0.1000,0.0000,0.0000,-0.5102,0.4587,0.4428,0.5771,9.6700,0.3900,1.8700,0.0000,0.0000,0.0000,0.2306,-0.4133,-0.8654,-0.1643,5.2600,0.8900,-8.1900,0.0000,0.0000,0.0000
