LoopCnt,H10Mode,H10AssistLevel,ImuHubConnected,LeftHipAngle,RightHipAngle,LeftThighAngle,RightThighAngle,LeftHipTorque,RightHipTorque,LeftHipMotorAngle,RightHipMotorAngle,LeftHipImuGlobalAccX,LeftHipImuGlobalAccY,LeftHipImuGlobalAccZ,LeftHipImuGlobalGyrX,LeftHipImuGlobalGyrY,LeftHipImuGlobalGyrZ,RightHipImuGlobalAccX,RightHipImuGlobalAccY,RightHipImuGlobalAccZ,RightHipImuGlobalGyrX,RightHipImuGlobalGyrY,RightHipImuGlobalGyrZ,TrunkIMU_LocalAccX,TrunkIMU_LocalAccY,TrunkIMU_LocalAccZ,TrunkIMU_LocalGyrX,TrunkIMU_LocalGyrY,TrunkIMU_LocalGyrZ,TrunkIMU_QuatW,TrunkIMU_QuatX,TrunkIMU_QuatY,TrunkIMU_QuatZ,L_THIGH_IMU_QuatW,L_THIGH_IMU_QuatX,L_THIGH_IMU_QuatY,L_THIGH_IMU_QuatZ,L_THIGH_IMU_AccX,L_THIGH_IMU_AccY,L_THIGH_IMU_AccZ,L_THIGH_IMU_GyrX,L_THIGH_IMU_GyrY,L_THIGH_IMU_GyrZ,L_SHANK_IMU_QuatW,L_SHANK_IMU_QuatX,L_SHANK_IMU_QuatY,L_SHANK_IMU_QuatZ,L_SHANK_IMU_AccX,L_SHANK_IMU_AccY,L_SHANK_IMU_AccZ,L_SHANK_IMU_GyrX,L_SHANK_IMU_GyrY,L_SHANK_IMU_GyrZ,L_FOOT_IMU_QuatW,L_FOOT_IMU_QuatX,L_FOOT_IMU_QuatY,L_FOOT_IMU_QuatZ,L_FOOT_IMU_AccX,L_FOOT_IMU_AccY,L_FOOT_IMU_AccZ,L_FOOT_IMU_GyrX,L_FOOT_IMU_GyrY,L_FOOT_IMU_GyrZ,R_THIGH_IMU_QuatW,R_THIGH_IMU_QuatX,R_THIGH_IMU_QuatY,R_THIGH_IMU_QuatZ,R_THIGH_IMU_AccX,R_THIGH_IMU_AccY,R_THIGH_IMU_AccZ,R_THIGH_IMU_GyrX,R_THIGH_IMU_GyrY,R_THIGH_IMU_GyrZ,R_SHANK_IMU_QuatW,R_SHANK_IMU_QuatX,R_SHANK_IMU_QuatY,R_SHANK_IMU_QuatZ,R_SHANK_IMU_AccX,R_SHANK_IMU_AccY,R_SHANK_IMU_AccZ,R_SHANK_IMU_GyrX,R_SHANK_IMU_GyrY,R_SHANK_IMU_GyrZ,R_FOOT_IMU_QuatW,R_FOOT_IMU_QuatX,R_FOOT_IMU_QuatY,R_FOOT_IMU_QuatZ,R_FOOT_IMU_AccX,R_FOOT_IMU_AccY,R_FOOT_IMU_AccZ,R_FOOT_IMU_GyrX,R_FOOT_IMU_GyrY,R_FOOT_IMU_GyrZ
9780,0,0,1,1.2964,4.3945,1.4502,4.5483,0.0110,0.0275,-0.3076,2.0654,-0.0742,9.7492,-0.0311,-0.1526,-1.4954,-0.1526,-0.0742,9.7492,-0.0311,-0.1526,-1.4954,-0.1526,0.0000,0.0000,0.0000,0.0000,0.0000,0.0000,0.0000,0.0000,0.0000,0.0000,0.7618,-0.1591,-0.6179,-0.1113,9.4600,-0.9000,2.3600,0.0000,0.0000,0.0000,0.7594,-0.0203,-0.6483,0.0489,9.5400,-1.0300,1.9600,0.0000,0.0000,0.0000,0.2311,-0.2700,-0.9343,0.0263,4.0400,-1.7000,-8.7400,0.0000,0.0000,0.0000,0.7702,0.1162,-0.6160,0.1167,9.5900,0.3100,2.0500,0.0000,0.0000,0.0000,0.7377,0.0374,-0.6740,0.0041,9.7600,0.4800,0.8100,0.0000,0.0000,0.0000,0.1666,0.2534,-0.1514,0.9407,5.1500,-1.9600,8.0700,0.0000,0.0000,0.0000
9781,0,0,1,1.2964,4.3945,1.4502,4.5483,0.0256,0.0146,-0.3076,2.0654,-0.1125,9.8067,-0.0527,-0.0916,-1.8616,-0.0916,-0.1125,9.8067,-0.0527,-0.0916,-1.8616,-0.0916,0.0000,0.0000,0.0000,0.0000,0.0000,0.0000,0.0000,0.0000,0.0000,0.0000,0.7618,-0.1591,-0.6179,-0.1113,9.4700,-0.9000,2.3600,0.0000,0.0000,0.0000,0.7594,-0.0203,-0.6483,0.0489,9.5400,-1.0300,1.9600,0.0000,0.0000,0.0000,0.2311,-0.2700,-0.9343,0.0263,4.0300,-1.7100,-8.7300,0.0000,0.0000,0.0000,0.7702,0.1162,-0.6160,0.1167,9.5900,0.3400,2.0300,0.0000,0.0000,0.0000,0.7377,0.0374,-0.6740,0.0041,9.7500,0.4700,0.8100,0.0000,0.0000,0.0000,0.1666,0.2534,-0.1514,0.9407,5.1500,-1.9600,8.0700,0.0000,0.0000,0.0000
9782,0,0,1,1.2964,4.3945,1.4502,4.5483,0.0073,-0.0183,-0.3076,2.0654,-0.0742,9.7923,-0.0096,-0.0305,-1.5564,0.1221,-0.0742,9.7923,-0.0096,-0.0305,-1.5564,0.1221,0.0000,0.0000,0.0000,0.0000,0.0000,0.0000,0.0000,0.0000,0.0000,0.0000,0.7618,-0.1591,-0.6179,-0.1113,9.5000,-0.9100,2.3900,0.0000,0.0000,0.0000,0.7594,-0.0203,-0.6483,0.0489,9.5400,-1.0000,1.9700,0.0000,0.0000,0.0000,0.2311,-0.2700,-0.9343,0.0263,4.0500,-1.7000,-8.7200,0.0000,0.0000,0.0000,0.7702,0.1162,-0.6160,0.1167,9.5900,0.3400,2.0300,0.0000,0.0000,0.0000,0.7377,0.0374,-0.6740,0.0041,9.7500,0.4700,0.8100,0.0000,0.0000,0.0000,0.1666,0.2534,-0.1514,0.9407,5.1500,-1.9700,8.0800,0.0000,0.0000,0.0000
9783,0,0,1,1.2964,4.3945,1.4502,4.5483,0.0110,0.0092,-0.3076,2.0654,-0.0886,9.8306,0.0000,-0.1526,-1.5259,-0.0916,-0.0886,9.8306,0.0000,-0.1526,-1.5259,-0.0916,0.0000,0.0000,0.0000,0.0000,0.0000,0.0000,0.0000,0.0000,0.0000,0.0000,0.7618,-0.1591,-0.6179,-0.1114,9.4600,-0.9400,2.3700,0.0000,0.0000,0.0000,0.7594,-0.0203,-0.6483,0.0488,9.5300,-0.9900,1.9700,0.0000,0.0000,0.0000,0.2311,-0.2700,-0.9343,0.0263,4.0500,-1.6900,-8.7300,0.0000,0.0000,0.0000,0.7702,0.1162,-0.6160,0.1167,9.5900,0.2900,2.0500,0.0000,0.0000,0.0000,0.7377,0.0374,-0.6740,0.0041,9.7600,0.4700,0.8200,0.0000,0.0000,0.0000,0.1666,0.2534,-0.1514,0.9407,5.1600,-1.9800,8.0800,0.0000,0.0000,0.0000
9784,0,0,1,1.2964,4.3945,1.4502,4.5483,-0.0165,-0.0128,-0.3076,2.0654,-0.0383,9.8162,-0.0215,-0.1221,-1.4648,-0.2136,-0.0383,9.8162,-0.0215,-0.1221,-1.4648,-0.2136,0.0000,0.0000,0.0000,0.0000,0.0000,0.0000,0.0000,0.0000,0.0000,0.0000,0.7618,-0.1591,-0.6179,-0.1113,9.4500,-0.9200,2.3800,0.0000,0.0000,0.0000,0.7594,-0.0203,-0.6483,0.0488,9.5500,-1.0200,1.9700,0.0000,0.0000,0.0000,0.2311,-0.2700,-0.9343,0.0263,4.0600,-1.6900,-8.7400,0.0000,0.0000,0.0000,0.7702,0.1162,-0.6160,0.1167,9.5800,0.3100,2.0400,0.0000,0.0000,0.0000,0.7377,0.0374,-0.6740,0.0041,9.7400,0.4600,0.8200,0.0000,0.0000,0.0000,0.1666,0.2534,-0.1514,0.9407,5.1500,-1.9800,8.0900,0.0000,0.0000,0.0000
9785,0,0,1,1.2964,4.3945,1.4502,4.5483,0.0000,0.0256,-0.3076,2.0654,-0.0886,9.7827,0.0096,-0.0916,-1.5869,-0.0610,-0.0886,9.7827,0.0096,-0.0916,-1.5869,-0.0610,0.0000,0.0000,0.0000,0.0000,0.0000,0.0000,0.0000,0.0000,0.0000,0.0000,0.7618,-0.1591,-0.6179,-0.1113,9.4500,-0.9200,2.3800,0.0000,0.0000,0.0000,0.7594,-0.0203,-0.6483,0.0489,9.5500,-1.0300,1.9800,0.0000,0.0000,0.0000,0.2311,-0.2700,-0.9343,0.0263,4.0600,-1.6900,-8.7400,0.0000,0.0000,0.0000,0.7702,0.1162,-0.6160,0.1167,9.5800,0.3000,2.0400,0.0000,0.0000,0.0000,0.7377,0.0374,-0.6740,0.0041,9.7500,0.4600,0.8200,0.0000,0.0000,0.0000,0.1666,0.2534,-0.1514,0.9407,5.1200,-1.9600,8.0800,0.0000,0.0000,0.0000
9786,0,0,1,1.2964,4.3945,1.4502,4.5483,0.0220,0.0128,-0.3076,2.0654,-0.1269,9.7109,-0.0168,0.0305,-1.5564,-0.0916,-0.1269,9.7109,-0.0168,0.0305,-1.5564,-0.0916,0.0000,0.0000,0.0000,0.0000,0.0000,0.0000,0.0000,0.0000,0.0000,0.0000,0.7618,-0.1590,-0.6180,-0.1113,9.4200,-0.9200,2.3900,0.0000,0.0000,0.0000,0.7594,-0.0203,-0.6483,0.0489,9.5500,-1.0300,1.9800,0.0000,0.0000,0.0000,0.2311,-0.2700,-0.9343,0.0263,4.0400,-1.6900,-8.7300,0.0000,0.0000,0.0000,0.7702,0.1162,-0.6160,0.1166,9.5800,0.3000,2.0400,0.0000,0.0000,0.0000,0.7377,0.0374,-0.6740,0.0041,9.7300,0.4700,0.8100,0.0000,0.0000,0.0000,0.1666,0.2534,-0.1514,0.9407,5.1400,-1.9600,8.0900,0.0000,0.0000,0.0000
9787,0,0,1,1.2964,4.3945,1.4502,4.5483,0.0110,-0.0165,-0.3076,2.0654,-0.0982,9.7827,-0.0120,0.1831,-1.5869,-0.1221,-0.0982,9.7827,-0.0120,0.1831,-1.5869,-0.1221,0.0000,0.0000,0.0000,0.0000,0.0000,0.0000,0.0000,0.0000,0.0000,0.0000,0.7618,-0.1590,-0.6180,-0.1113,9.4100,-0.9200,2.3600,0.0000,0.0000,0.0000,0.7594,-0.0203,-0.6483,0.0489,9.5400,-1.0400,1.9900,0.0000,0.0000,0.0000,0.2311,-0.2700,-0.9343,0.0263,4.0500,-1.7000,-8.7400,0.0000,0.0000,0.0000,0.7702,0.1162,-0.6160,0.1166,9.5800,0.3000,2.0400,0.0000,0.0000,0.0000,0.7377,0.0374,-0.6740,0.0041,9.7300,0.4700,0.8100,0.0000,0.0000,0.0000,0.1666,0.2534,-0.1514,0.9407,5.1400,-1.9600,8.0900,0.0000,0.0000,0.0000
9788,0,0,1,1.2964,4.3945,1.4502,4.5483,-0.0055,0.0146,-0.3076,2.0654,-0.0694,9.8258,0.0168,0.0916,-1.5259,-0.2136,-0.0694,9.8258,0.0168,0.0916,-1.5259,-0.2136,0.0000,0.0000,0.0000,0.0000,0.0000,0.0000,0.0000,0.0000,0.0000,0.0000,0.7618,-0.1590,-0.6179,-0.1114,9.4200,-0.8900,2.3400,0.0000,0.0000,0.0000,0.7594,-0.0203,-0.6483,0.0489,9.5400,-1.0500,1.9900,0.0000,0.0000,0.0000,0.2311,-0.2700,-0.9343,0.0263,4.0400,-1.7000,-8.7200,0.0000,0.0000,0.0000,0.7702,0.1162,-0.6160,0.1166,9.5700,0.2800,2.0300,0.0000,0.0000,0.0000,0.7377,0.0374,-0.6740,0.0041,9.7400,0.4600,0.8100,0.0000,0.0000,0.0000,0.1666,0.2534,-0.1514,0.9407,5.1200,-1.9600,8.0700,0.0000,0.0000,0.0000
9789,0,0,1,1.2964,4.3945,1.4502,4.5483,0.0092,0.0110,-0.3076,2.0654,-0.0551,9.8067,-0.0024,-0.1526,-1.6479,-0.2136,-0.0551,9.8067,-0.0024,-0.1526,-1.6479,-0.2136,0.0000,0.0000,0.0000,0.0000,0.0000,0.0000,0.0000,0.0000,0.0000,0.0000,0.7618,-0.1590,-0.6179,-0.1114,9.4100,-0.9200,2.3400,0.0000,0.0000,0.0000,0.7594,-0.0203,-0.6483,0.0489,9.5300,-1.0600,1.9800,0.0000,0.0000,0.0000,0.2311,-0.2700,-0.9343,0.0263,4.0600,-1.6900,-8.7300,0.0000,0.0000,0.0000,0.7702,0.1162,-0.6161,0.1167,9.5400,0.2800,2.0300,0.0000,0.0000,0.0000,0.7377,0.0374,-0.6740,0.0041,9.7300,0.4600,0.8200,0.0000,0.0000,0.0000,0.1666,0.2534,-0.1514,0.9407,5.1400,-1.9600,8.0900,0.0000,0.0000,0.0000
9790,0,0,1,1.2964,4.3945,1.4502,4.5483,-0.0146,-0.0146,-0.3076,2.0654,-0.1269,9.7636,-0.0479,0.0000,-1.6174,-0.3357,-0.1269,9.7636,-0.0479,0.0000,-1.6174,-0.3357,0.0000,0.0000,0.0000,0.0000,0.0000,0.0000,0.0000,0.0000,0.0000,0.0000,0.7618,-0.1590,-0.6179,-0.1114,9.4100,-0.9200,2.3400,0.0000,0.0000,0.0000,0.7594,-0.0203,-0.6483,0.0489,9.5300,-1.0700,1.9500,0.0000,0.0000,0.0000,0.2311,-0.2700,-0.9343,0.0263,4.0600,-1.6900,-8.7300,0.0000,0.0000,0.0000,0.7702,0.1162,-0.6161,0.1167,9.5300,0.2800,2.0200,0.0000,0.0000,0.0000,0.7377,0.0374,-0.6740,0.0041,9.7400,0.4400,0.8200,0.0000,0.0000,0.0000,0.1666,0.2534,-0.1514,0.9407,5.1600,-1.9700,8.0700,0.0000,0.0000,0.0000
9791,0,0,1,1.2964,4.3945,1.4502,4.5483,-0.0128,0.0256,-0.3076,2.0654,-0.1221,9.7205,0.0048,0.0610,-1.6785,-0.1526,-0.1221,9.7205,0.0048,0.0610,-1.6785,-0.1526,0.0000,0.0000,0.0000,0.0000,0.0000,0.0000,0.0000,0.0000,0.0000,0.0000,0.7618,-0.1590,-0.6179,-0.1113,9.4200,-0.9200,2.3400,0.0000,0.0000,0.0000,0.7594,-0.0203,-0.6483,0.0489,9.5300,-1.0700,1.9500,0.0000,0.0000,0.0000,0.2311,-0.2700,-0.9343,0.0263,4.0500,-1.7100,-8.7100,0.0000,0.0000,0.0000,0.7702,0.1162,-0.6161,0.1167,9.5300,0.2600,2.0300,0.0000,0.0000,0.0000,0.7377,0.0374,-0.6740,0.0041,9.7400,0.4200,0.8200,0.0000,0.0000,0.0000,0.1666,0.2534,-0.1514,0.9407,5.1500,-1.9800,8.0600,0.0000,0.0000,0.0000
9792,0,0,1,1.2964,4.3945,1.4502,4.5483,0.0055,0.0018,-0.3076,2.0654,-0.1173,9.7731,0.0096,0.0000,-1.6174,-0.1221,-0.1173,9.7731,0.0096,0.0000,-1.6174,-0.1221,0.0000,0.0000,0.0000,0.0000,0.0000,0.0000,0.0000,0.0000,0.0000,0.0000,0.7618,-0.1590,-0.6179,-0.1113,9.4000,-0.9500,2.3400,0.0000,0.0000,0.0000,0.7594,-0.0203,-0.6483,0.0489,9.5200,-1.0600,1.9400,0.0000,0.0000,0.0000,0.2311,-0.2700,-0.9343,0.0263,4.0600,-1.7000,-8.7200,0.0000,0.0000,0.0000,0.7702,0.1162,-0.6161,0.1167,9.5200,0.2600,2.0300,0.0000,0.0000,0.0000,0.7377,0.0374,-0.6740,0.0041,9.7400,0.4200,0.8200,0.0000,0.0000,0.0000,0.1666,0.2534,-0.1514,0.9407,5.1500,-1.9800,8.0600,0.0000,0.0000,0.0000
9793,0,0,1,1.2964,4.3945,1.4502,4.5483,0.0073,-0.0055,-0.3076,2.0654,-0.0335,9.8162,-0.0287,0.0000,-1.5564,-0.2441,-0.0335,9.8162,-0.0287,0.0000,-1.5564,-0.2441,0.0000,0.0000,0.0000,0.0000,0.0000,0.0000,0.0000,0.0000,0.0000,0.0000,0.7618,-0.1590,-0.6179,-0.1114,9.4300,-0.9500,2.3300,0.0000,0.0000,0.0000,0.7594,-0.0203,-0.6483,0.0489,9.5300,-1.0400,1.9200,0.0000,0.0000,0.0000,0.2311,-0.2700,-0.9343,0.0263,4.0400,-1.7100,-8.7300,0.0000,0.0000,0.0000,0.7702,0.1162,-0.6161,0.1167,9.5200,0.2600,2.0300,0.0000,0.0000,0.0000,0.7377,0.0374,-0.6740,0.0041,9.7200,0.4200,0.8200,0.0000,0.0000,0.0000,0.1666,0.2534,-0.1514,0.9407,5.1300,-1.9600,8.0800,0.0000,0.0000,0.0000
9794,0,0,1,1.2964,4.3945,1.4502,4.5483,0.0055,0.0146,-0.3076,2.0654,-0.0670,9.7636,-0.0431,0.0916,-1.4038,-0.3662,-0.0670,9.7636,-0.0431,0.0916,-1.4038,-0.3662,0.0000,0.0000,0.0000,0.0000,0.0000,0.0000,0.0000,0.0000,0.0000,0.0000,0.7618,-0.1590,-0.6179,-0.1114,9.4300,-0.9500,2.3300,0.0000,0.0000,0.0000,0.7594,-0.0203,-0.6484,0.0489,9.5400,-1.0600,1.9200,0.0000,0.0000,0.0000,0.2311,-0.2700,-0.9343,0.0263,4.0400,-1.7300,-8.7400,0.0000,0.0000,0.0000,0.7702,0.1162,-0.6161,0.1167,9.5400,0.2600,2.0200,0.0000,0.0000,0.0000,0.7377,0.0374,-0.6740,0.0041,9.7200,0.4200,0.8200,0.0000,0.0000,0.0000,0.1666,0.2534,-0.1514,0.9407,5.1300,-1.9500,8.0800,0.0000,0.0000,0.0000
9795,0,0,1,1.2964,4.3945,1.4502,4.5483,-0.0018,-0.0092,-0.3076,2.0654,-0.0694,9.8234,-0.0120,0.1526,-1.6479,-0.3662,-0.0694,9.8234,-0.0120,0.1526,-1.6479,-0.3662,0.0000,0.0000,0.0000,0.0000,0.0000,0.0000,0.0000,0.0000,0.0000,0.0000,0.7618,-0.1590,-0.6179,-0.1114,9.4400,-0.9500,2.3200,0.0000,0.0000,0.0000,0.7594,-0.0202,-0.6484,0.0489,9.5300,-1.0600,1.9300,0.0000,0.0000,0.0000,0.2311,-0.2700,-0.9343,0.0263,4.0400,-1.7300,-8.7400,0.0000,0.0000,0.0000,0.7702,0.1162,-0.6161,0.1167,9.5200,0.2500,2.0200,0.0000,0.0000,0.0000,0.7377,0.0374,-0.6740,0.0040,9.7300,0.4500,0.8200,0.0000,0.0000,0.0000,0.1666,0.2534,-0.1514,0.9407,5.1600,-1.9500,8.0600,0.0000,0.0000,0.0000
9796,0,0,1,1.2964,4.3945,1.4502,4.5483,-0.0055,0.0073,-0.3076,2.0654,-0.0551,9.7779,-0.0335,-0.0916,-1.4343,-0.2136,-0.0551,9.7779,-0.0335,-0.0916,-1.4343,-0.2136,0.0000,0.0000,0.0000,0.0000,0.0000,0.0000,0.0000,0.0000,0.0000,0.0000,0.7618,-0.1590,-0.6179,-0.1114,9.4300,-0.9500,2.3300,0.0000,0.0000,0.0000,0.7594,-0.0202,-0.6484,0.0489,9.5300,-1.0600,1.9300,0.0000,0.0000,0.0000,0.2311,-0.2700,-0.9342,0.0263,4.0600,-1.7200,-8.7300,0.0000,0.0000,0.0000,0.7702,0.1162,-0.6161,0.1167,9.5200,0.2600,2.0200,0.0000,0.0000,0.0000,0.7377,0.0374,-0.6740,0.0040,9.7300,0.4500,0.8200,0.0000,0.0000,0.0000,0.1666,0.2534,-0.1514,0.9407,5.1600,-1.9500,8.0600,0.0000,0.0000,0.0000
9797,0,0,1,1.2964,4.3945,1.4502,4.5483,-0.0128,0.0055,-0.3076,2.0654,-0.0838,9.7875,-0.0120,0.0610,-1.3733,-0.3967,-0.0838,9.7875,-0.0120,0.0610,-1.3733,-0.3967,0.0000,0.0000,0.0000,0.0000,0.0000,0.0000,0.0000,0.0000,0.0000,0.0000,0.7618,-0.1589,-0.6179,-0.1114,9.4400,-0.9500,2.3400,0.0000,0.0000,0.0000,0.7594,-0.0202,-0.6484,0.0489,9.5000,-1.0700,1.9100,0.0000,0.0000,0.0000,0.2311,-0.2700,-0.9342,0.0263,4.0300,-1.7200,-8.7300,0.0000,0.0000,0.0000,0.7702,0.1162,-0.6161,0.1167,9.5200,0.2600,2.0200,0.0000,0.0000,0.0000,0.7377,0.0373,-0.6740,0.0040,9.7200,0.4400,0.8200,0.0000,0.0000,0.0000,0.1666,0.2534,-0.1514,0.9407,5.1400,-1.9600,8.0900,0.0000,0.0000,0.0000
9798,0,0,1,1.2964,4.3945,1.4502,4.5483,-0.0146,0.0110,-0.3076,2.0654,-0.0407,9.8114,0.0024,0.0000,-1.3123,-0.4272,-0.0407,9.8114,0.0024,0.0000,-1.3123,-0.4272,0.0000,0.0000,0.0000,0.0000,0.0000,0.0000,0.0000,0.0000,0.0000,0.0000,0.7619,-0.1589,-0.6178,-0.1114,9.4500,-0.9400,2.3300,0.0000,0.0000,0.0000,0.7593,-0.0201,-0.6484,0.0491,9.5200,-1.0800,1.9200,0.0000,0.0000,0.0000,0.2311,-0.2700,-0.9343,0.0263,4.0500,-1.7100,-8.7200,0.0000,0.0000,0.0000,0.7702,0.1162,-0.6160,0.1167,9.5500,0.2600,2.0500,0.0000,0.0000,0.0000,0.7377,0.0373,-0.6740,0.0040,9.7100,0.4300,0.8200,0.0000,0.0000,0.0000,0.1666,0.2534,-0.1514,0.9407,5.1300,-1.9500,8.0800,0.0000,0.0000,0.0000
9799,0,0,1,1.2964,4.3945,1.4502,4.5483,-0.0110,-0.0201,-0.3076,2.0654,-0.0814,9.7779,-0.0335,-0.0916,-1.4343,-0.4272,-0.0814,9.7779,-0.0335,-0.0916,-1.4343,-0.4272,0.0000,0.0000,0.0000,0.0000,0.0000,0.0000,0.0000,0.0000,0.0000,0.0000,0.7619,-0.1589,-0.6178,-0.1114,9.4500,-0.9400,2.3300,0.0000,0.0000,0.0000,0.7593,-0.0201,-0.6484,0.0491,9.5200,-1.0900,1.9000,0.0000,0.0000,0.0000,0.2311,-0.2700,-0.9343,0.0263,4.0400,-1.7100,-8.7400,0.0000,0.0000,0.0000,0.7702,0.1162,-0.6160,0.1166,9.5500,0.2700,2.0500,0.0000,0.0000,0.0000,0.7376,0.0374,-0.6740,0.0041,9.7400,0.4400,0.8100,0.0000,0.0000,0.0000,0.1666,0.2534,-0.1514,0.9407,5.1200,-1.9600,8.0600,0.0000,0.0000,0.0000
9800,0,0,1,1.2964,4.3945,1.4502,4.5483,0.0092,-0.0092,-0.3076,2.0654,-0.0958,9.7875,-0.0431,0.0000,-1.4954,-0.4272,-0.0958,9.7875,-0.0431,0.0000,-1.4954,-0.4272,0.0000,0.0000,0.0000,0.0000,0.0000,0.0000,0.0000,0.0000,0.0000,0.0000,0.7619,-0.1589,-0.6178,-0.1114,9.4500,-0.9500,2.3100,0.0000,0.0000,0.0000,0.7593,-0.0201,-0.6484,0.0491,9.5100,-1.0700,1.9000,0.0000,0.0000,0.0000,0.2311,-0.2700,-0.9343,0.0263,4.0400,-1.7100,-8.7400,0.0000,0.0000,0.0000,0.7702,0.1162,-0.6160,0.1166,9.5400,0.2500,2.0600,0.0000,0.0000,0.0000,0.7376,0.0374,-0.6740,0.0041,9.7500,0.4600,0.8400,0.0000,0.0000,0.0000,0.1666,0.2534,-0.1514,0.9407,5.1100,-1.9600,8.0800,0.0000,0.0000,0.0000
9801,0,0,1,1.2964,4.3945,1.4502,4.5483,0.0128,-0.0092,-0.3076,2.0654,-0.0311,9.8306,-0.0335,0.0000,-1.3428,-0.4883,-0.0311,9.8306,-0.0335,0.0000,-1.3428,-0.4883,0.0000,0.0000,0.0000,0.0000,0.0000,0.0000,0.0000,0.0000,0.0000,0.0000,0.7619,-0.1589,-0.6178,-0.1114,9.4500,-0.9400,2.3200,0.0000,0.0000,0.0000,0.7593,-0.0201,-0.6484,0.0491,9.5100,-1.0700,1.9000,0.0000,0.0000,0.0000,0.2311,-0.2700,-0.9343,0.0263,4.0200,-1.7200,-8.7300,0.0000,0.0000,0.0000,0.7702,0.1162,-0.6160,0.1166,9.5400,0.2300,2.0500,0.0000,0.0000,0.0000,0.7376,0.0374,-0.6740,0.0041,9.7500,0.4600,0.8400,0.0000,0.0000,0.0000,0.1666,0.2534,-0.1514,0.9407,5.1100,-1.9600,8.0800,0.0000,0.0000,0.0000
9802,0,0,1,1.2964,4.3945,1.4502,4.5483,0.0128,-0.0128,-0.3076,2.0654,-0.0431,9.8019,0.0000,0.0305,-1.3123,-0.3967,-0.0431,9.8019,0.0000,0.0305,-1.3123,-0.3967,0.0000,0.0000,0.0000,0.0000,0.0000,0.0000,0.0000,0.0000,0.0000,0.0000,0.7619,-0.1589,-0.6178,-0.1114,9.4800,-0.9500,2.3100,0.0000,0.0000,0.0000,0.7593,-0.0201,-0.6484,0.0491,9.5100,-1.0900,1.9000,0.0000,0.0000,0.0000,0.2311,-0.2700,-0.9343,0.0263,4.0400,-1.7200,-8.7100,0.0000,0.0000,0.0000,0.7702,0.1162,-0.6160,0.1166,9.5400,0.2300,2.0500,0.0000,0.0000,0.0000,0.7376,0.0374,-0.6740,0.0041,9.7100,0.4400,0.8200,0.0000,0.0000,0.0000,0.1666,0.2534,-0.1514,0.9407,5.1400,-1.9700,8.0800,0.0000,0.0000,0.0000
9803,0,0,1,1.2964,4.3945,1.4502,4.5483,0.0000,-0.0201,-0.3076,2.0654,-0.0790,9.7875,-0.0096,0.0000,-1.4343,-0.5188,-0.0790,9.7875,-0.0096,0.0000,-1.4343,-0.5188,0.0000,0.0000,0.0000,0.0000,0.0000,0.0000,0.0000,0.0000,0.0000,0.0000,0.7619,-0.1589,-0.6178,-0.1114,9.4800,-0.9400,2.2800,0.0000,0.0000,0.0000,0.7593,-0.0201,-0.6484,0.0491,9.5300,-1.1100,1.8900,0.0000,0.0000,0.0000,0.2311,-0.2700,-0.9343,0.0263,4.0300,-1.7100,-8.7300,0.0000,0.0000,0.0000,0.7702,0.1162,-0.6160,0.1166,9.5400,0.2200,2.0400,0.0000,0.0000,0.0000,0.7376,0.0374,-0.6741,0.0041,9.7300,0.4200,0.8100,0.0000,0.0000,0.0000,0.1666,0.2534,-0.1514,0.9407,5.1300,-1.9600,8.0800,0.0000,0.0000,0.0000
9804,0,0,1,1.2964,4.3945,1.4502,4.5483,-0.0092,0.0092,-0.3076,2.0654,-0.0599,9.8617,0.0000,-0.0305,-1.4038,-0.3967,-0.0599,9.8617,0.0000,-0.0305,-1.4038,-0.3967,0.0000,0.0000,0.0000,0.0000,0.0000,0.0000,0.0000,0.0000,0.0000,0.0000,0.7619,-0.1589,-0.6178,-0.1114,9.4800,-0.9400,2.2800,0.0000,0.0000,0.0000,0.7593,-0.0201,-0.6484,0.0491,9.5400,-1.0800,1.8700,0.0000,0.0000,0.0000,0.2311,-0.2700,-0.9343,0.0263,4.0400,-1.7100,-8.7300,0.0000,0.0000,0.0000,0.7702,0.1162,-0.6160,0.1166,9.5400,0.2200,2.0500,0.0000,0.0000,0.0000,0.7376,0.0374,-0.6741,0.0041,9.7400,0.4700,0.8200,0.0000,0.0000,0.0000,0.1666,0.2533,-0.1514,0.9407,5.1300,-1.9400,8.0700,0.0000,0.0000,0.0000
9805,0,0,1,1.2964,4.3945,1.4502,4.5483,0.0201,-0.0055,-0.3076,2.0654,-0.0575,9.8019,-0.0048,-0.0305,-1.4648,-0.3052,-0.0575,9.8019,-0.0048,-0.0305,-1.4648,-0.3052,0.0000,0.0000,0.0000,0.0000,0.0000,0.0000,0.0000,0.0000,0.0000,0.0000,0.7619,-0.1589,-0.6178,-0.1114,9.4800,-0.9500,2.2600,0.0000,0.0000,0.0000,0.7593,-0.0201,-0.6484,0.0491,9.5400,-1.0700,1.8600,0.0000,0.0000,0.0000,0.2311,-0.2700,-0.9343,0.0263,4.0400,-1.7100,-8.7300,0.0000,0.0000,0.0000,0.7702,0.1162,-0.6160,0.1166,9.5500,0.2100,2.0200,0.0000,0.0000,0.0000,0.7376,0.0374,-0.6741,0.0041,9.7600,0.4500,0.8000,0.0000,0.0000,0.0000,0.1666,0.2533,-0.1514,0.9407,5.1200,-1.9400,8.0900,0.0000,0.0000,0.0000
9806,0,0,1,1.2964,4.3945,1.4502,4.5483,-0.0165,-0.0146,-0.3076,2.0654,-0.0670,9.8090,-0.0168,-0.1221,-1.4038,-0.3967,-0.0670,9.8090,-0.0168,-0.1221,-1.4038,-0.3967,0.0000,0.0000,0.0000,0.0000,0.0000,0.0000,0.0000,0.0000,0.0000,0.0000,0.7619,-0.1589,-0.6178,-0.1115,9.4700,-0.9600,2.2700,0.0000,0.0000,0.0000,0.7593,-0.0201,-0.6484,0.0491,9.5400,-1.0700,1.8600,0.0000,0.0000,0.0000,0.2311,-0.2700,-0.9343,0.0263,4.0400,-1.7200,-8.7300,0.0000,0.0000,0.0000,0.7702,0.1162,-0.6160,0.1166,9.5700,0.2300,2.0200,0.0000,0.0000,0.0000,0.7376,0.0374,-0.6741,0.0041,9.7500,0.4200,0.8100,0.0000,0.0000,0.0000,0.1666,0.2533,-0.1514,0.9407,5.1200,-1.9400,8.0900,0.0000,0.0000,0.0000
9807,0,0,1,1.2964,4.3945,1.4502,4.5483,0.0000,-0.0183,-0.3076,2.0654,-0.0622,9.8450,0.0239,0.0000,-1.3733,-0.2441,-0.0622,9.8450,0.0239,0.0000,-1.3733,-0.2441,0.0000,0.0000,0.0000,0.0000,0.0000,0.0000,0.0000,0.0000,0.0000,0.0000,0.7619,-0.1589,-0.6178,-0.1115,9.4800,-0.9400,2.2700,0.0000,0.0000,0.0000,0.7593,-0.0201,-0.6484,0.0491,9.5300,-1.0600,1.8700,0.0000,0.0000,0.0000,0.2311,-0.2700,-0.9343,0.0263,4.0300,-1.6900,-8.7000,0.0000,0.0000,0.0000,0.7702,0.1162,-0.6160,0.1166,9.5700,0.2300,2.0200,0.0000,0.0000,0.0000,0.7376,0.0374,-0.6741,0.0041,9.7500,0.4200,0.8100,0.0000,0.0000,0.0000,0.1666,0.2533,-0.1514,0.9407,5.1400,-1.9500,8.0900,0.0000,0.0000,0.0000
9808,0,0,1,1.2964,4.3945,1.4502,4.5483,-0.0146,-0.0110,-0.3076,2.0654,-0.1173,9.7588,-0.0192,-0.0610,-1.4954,-0.3357,-0.1173,9.7588,-0.0192,-0.0610,-1.4954,-0.3357,0.0000,0.0000,0.0000,0.0000,0.0000,0.0000,0.0000,0.0000,0.0000,0.0000,0.7619,-0.1589,-0.6178,-0.1115,9.4800,-0.9300,2.2800,0.0000,0.0000,0.0000,0.7593,-0.0201,-0.6484,0.0491,9.5400,-1.0700,1.8600,0.0000,0.0000,0.0000,0.2311,-0.2701,-0.9342,0.0263,4.0200,-1.7000,-8.7200,0.0000,0.0000,0.0000,0.7702,0.1163,-0.6160,0.1166,9.5700,0.2100,2.0100,0.0000,0.0000,0.0000,0.7376,0.0374,-0.6741,0.0041,9.7600,0.4200,0.8000,0.0000,0.0000,0.0000,0.1666,0.2533,-0.1514,0.9407,5.1300,-1.9500,8.0800,0.0000,0.0000,0.0000
9809,0,0,1,1.2964,4.3945,1.4502,4.5483,0.0201,0.0146,-0.3076,2.0654,-0.0599,9.7971,-0.0383,0.1221,-1.5564,-0.3357,-0.0599,9.7971,-0.0383,0.1221,-1.5564,-0.3357,0.0000,0.0000,0.0000,0.0000,0.0000,0.0000,0.0000,0.0000,0.0000,0.0000,0.7619,-0.1589,-0.6178,-0.1115,9.4800,-0.9300,2.2800,0.0000,0.0000,0.0000,0.7593,-0.0201,-0.6484,0.0491,9.5400,-1.0600,1.8600,0.0000,0.0000,0.0000,0.2311,-0.2701,-0.9342,0.0263,4.0300,-1.7100,-8.7200,0.0000,0.0000,0.0000,0.7702,0.1162,-0.6160,0.1166,9.5700,0.2100,2.0100,0.0000,0.0000,0.0000,0.7376,0.0373,-0.6741,0.0040,9.7600,0.4200,0.8000,0.0000,0.0000,0.0000,0.1666,0.2533,-0.1514,0.9407,5.1300,-1.9600,8.0900,0.0000,0.0000,0.0000
9810,0,0,1,1.2964,4.3945,1.4502,4.5483,-0.0092,0.0128,-0.3076,2.0654,-0.0551,9.8330,0.0072,0.3357,-1.4343,-0.4883,-0.0551,9.8330,0.0072,0.3357,-1.4343,-0.4883,0.0000,0.0000,0.0000,0.0000,0.0000,0.0000,0.0000,0.0000,0.0000,0.0000,0.7619,-0.1589,-0.6178,-0.1115,9.5000,-0.9300,2.3100,0.0000,0.0000,0.0000,0.7593,-0.0201,-0.6484,0.0491,9.5400,-1.0500,1.8700,0.0000,0.0000,0.0000,0.2311,-0.2701,-0.9342,0.0263,4.0300,-1.7100,-8.7200,0.0000,0.0000,0.0000,0.7702,0.1162,-0.6160,0.1166,9.5700,0.2400,1.9900,0.0000,0.0000,0.0000,0.7376,0.0373,-0.6741,0.0040,9.7700,0.4300,0.8000,0.0000,0.0000,0.0000,0.1667,0.2533,-0.1514,0.9407,5.1300,-1.9600,8.0800,0.0000,0.0000,0.0000
9811,0,0,1,1.2964,4.3945,1.4502,4.5483,-0.0110,0.0055,-0.3076,2.0654,-0.0431,9.8881,0.0024,0.0000,-1.4343,-0.3967,-0.0431,9.8881,0.0024,0.0000,-1.4343,-0.3967,0.0000,0.0000,0.0000,0.0000,0.0000,0.0000,0.0000,0.0000,0.0000,0.0000,0.7619,-0.1589,-0.6178,-0.1115,9.5000,-0.9200,2.3100,0.0000,0.0000,0.0000,0.7593,-0.0201,-0.6484,0.0491,9.5400,-1.0500,1.8700,0.0000,0.0000,0.0000,0.2311,-0.2701,-0.9342,0.0263,4.0200,-1.7100,-8.7400,0.0000,0.0000,0.0000,0.7702,0.1162,-0.6160,0.1166,9.5700,0.2400,2.0100,0.0000,0.0000,0.0000,0.7376,0.0373,-0.6741,0.0040,9.7600,0.4500,0.7900,0.0000,0.0000,0.0000,0.1667,0.2533,-0.1514,0.9407,5.1300,-1.9600,8.0900,0.0000,0.0000,0.0000
9812,0,0,1,1.2964,4.3945,1.4502,4.5483,-0.0201,0.0055,-0.3076,2.0654,-0.0622,9.8306,-0.0192,0.1526,-1.5869,-0.3967,-0.0622,9.8306,-0.0192,0.1526,-1.5869,-0.3967,0.0000,0.0000,0.0000,0.0000,0.0000,0.0000,0.0000,0.0000,0.0000,0.0000,0.7619,-0.1589,-0.6178,-0.1115,9.5000,-0.9200,2.3200,0.0000,0.0000,0.0000,0.7593,-0.0201,-0.6484,0.0491,9.5500,-1.0600,1.8700,0.0000,0.0000,0.0000,0.2311,-0.2701,-0.9342,0.0263,4.0300,-1.7200,-8.7300,0.0000,0.0000,0.0000,0.7702,0.1162,-0.6160,0.1166,9.5700,0.2400,2.0100,0.0000,0.0000,0.0000,0.7376,0.0373,-0.6741,0.0040,9.7600,0.4500,0.7900,0.0000,0.0000,0.0000,0.1667,0.2533,-0.1514,0.9407,5.1300,-1.9600,8.0900,0.0000,0.0000,0.0000
9813,0,0,1,1.2964,4.3945,1.4502,4.5483,-0.0146,0.0037,-0.3076,2.0654,-0.0694,9.8138,0.0000,0.0610,-1.2207,-0.4272,-0.0694,9.8138,0.0000,0.0610,-1.2207,-0.4272,0.0000,0.0000,0.0000,0.0000,0.0000,0.0000,0.0000,0.0000,0.0000,0.0000,0.7619,-0.1590,-0.6177,-0.1116,9.5200,-0.9100,2.3100,0.0000,0.0000,0.0000,0.7593,-0.0202,-0.6484,0.0491,9.5500,-1.0600,1.8600,0.0000,0.0000,0.0000,0.2311,-0.2701,-0.9342,0.0263,4.0200,-1.6900,-8.7300,0.0000,0.0000,0.0000,0.7702,0.1162,-0.6160,0.1166,9.5800,0.2400,2.0100,0.0000,0.0000,0.0000,0.7376,0.0373,-0.6741,0.0040,9.7600,0.4200,0.7800,0.0000,0.0000,0.0000,0.1667,0.2533,-0.1514,0.9407,5.1300,-1.9500,8.0900,0.0000,0.0000,0.0000
9814,0,0,1,1.2964,4.3945,1.4502,4.5483,-0.0110,-0.0128,-0.3076,2.0654,-0.0287,9.8067,-0.0048,-0.2136,-1.2207,-0.2747,-0.0287,9.8067,-0.0048,-0.2136,-1.2207,-0.2747,0.0000,0.0000,0.0000,0.0000,0.0000,0.0000,0.0000,0.0000,0.0000,0.0000,0.7619,-0.1590,-0.6177,-0.1116,9.5200,-0.9100,2.3100,0.0000,0.0000,0.0000,0.7593,-0.0202,-0.6484,0.0491,9.5600,-1.0500,1.8400,0.0000,0.0000,0.0000,0.2311,-0.2701,-0.9342,0.0263,4.0200,-1.7100,-8.7200,0.0000,0.0000,0.0000,0.7702,0.1162,-0.6160,0.1166,9.5700,0.2300,2.0000,0.0000,0.0000,0.0000,0.7376,0.0373,-0.6741,0.0040,9.7500,0.4100,0.7900,0.0000,0.0000,0.0000,0.1667,0.2533,-0.1514,0.9407,5.1400,-1.9400,8.0800,0.0000,0.0000,0.0000
9815,0,0,1,1.2964,4.3945,1.4502,4.5483,-0.0073,0.0092,-0.3076,2.0654,-0.0670,9.8138,-0.0144,0.0000,-1.3733,-0.2136,-0.0670,9.8138,-0.0144,0.0000,-1.3733,-0.2136,0.0000,0.0000,0.0000,0.0000,0.0000,0.0000,0.0000,0.0000,0.0000,0.0000,0.7619,-0.1590,-0.6177,-0.1116,9.4900,-0.8900,2.3000,0.0000,0.0000,0.0000,0.7593,-0.0202,-0.6484,0.0491,9.5650,-1.0600,1.8600,0.0000,0.0000,0.0000,0.2311,-0.2701,-0.9342,0.0263,4.0200,-1.7100,-8.7200,0.0000,0.0000,0.0000,0.7702,0.1162,-0.6160,0.1166,9.5800,0.2400,2.0200,0.0000,0.0000,0.0000,0.7376,0.0373,-0.6741,0.0040,9.7700,0.4200,0.7800,0.0000,0.0000,0.0000,0.1667,0.2533,-0.1514,0.9407,5.1000,-1.9600,8.0900,0.0000,0.0000,0.0000
9816,0,0,1,1.2964,4.3945,1.4502,4.5483,0.0201,0.0146,-0.3076,2.0654,-0.0862,9.8019,0.0239,0.0000,-1.7090,-0.4272,-0.0862,9.8019,0.0239,0.0000,-1.7090,-0.4272,0.0000,0.0000,0.0000,0.0000,0.0000,0.0000,0.0000,0.0000,0.0000,0.0000,0.7619,-0.1590,-0.6177,-0.1116,9.4800,-0.9100,2.2900,0.0000,0.0000,0.0000,0.7593,-0.0202,-0.6484,0.0491,9.5700,-1.0700,1.8800,0.0000,0.0000,0.0000,0.2311,-0.2701,-0.9342,0.0263,4.0400,-1.7100,-8.7100,0.0000,0.0000,0.0000,0.7702,0.1162,-0.6160,0.1166,9.6100,0.2400,2.0100,0.0000,0.0000,0.0000,0.7376,0.0373,-0.6741,0.0040,9.7500,0.4300,0.7900,0.0000,0.0000,0.0000,0.1667,0.2533,-0.1514,0.9407,5.1100,-1.9700,8.0900,0.0000,0.0000,0.0000
9817,0,0,1,1.2964,4.3945,1.4502,4.5483,-0.0073,0.0146,-0.3076,2.0654,-0.0599,9.8474,-0.0335,0.0000,-1.3123,-0.2136,-0.0599,9.8474,-0.0335,0.0000,-1.3123,-0.2136,0.0000,0.0000,0.0000,0.0000,0.0000,0.0000,0.0000,0.0000,0.0000,0.0000,0.7619,-0.1590,-0.6177,-0.1116,9.4800,-0.9200,2.2800,0.0000,0.0000,0.0000,0.7593,-0.0202,-0.6484,0.0491,9.5600,-1.0700,1.8800,0.0000,0.0000,0.0000,0.2311,-0.2701,-0.9342,0.0263,4.0500,-1.7200,-8.7400,0.0000,0.0000,0.0000,0.7702,0.1162,-0.6160,0.1165,9.6100,0.2400,2.0500,0.0000,0.0000,0.0000,0.7376,0.0373,-0.6741,0.0040,9.7500,0.4300,0.7900,0.0000,0.0000,0.0000,0.1667,0.2533,-0.1514,0.9407,5.1100,-1.9700,8.0900,0.0000,0.0000,0.0000
9818,0,0,1,1.2964,4.3945,1.4502,4.5483,-0.0146,0.0073,-0.3076,2.0654,-0.0311,9.8402,-0.0192,0.0305,-1.3123,-0.2136,-0.0311,9.8402,-0.0192,0.0305,-1.3123,-0.2136,0.0000,0.0000,0.0000,0.0000,0.0000,0.0000,0.0000,0.0000,0.0000,0.0000,0.7619,-0.1589,-0.6177,-0.1116,9.4900,-0.9100,2.3000,0.0000,0.0000,0.0000,0.7593,-0.0201,-0.6485,0.0492,9.5300,-1.0700,1.8900,0.0000,0.0000,0.0000,0.2311,-0.2701,-0.9342,0.0263,4.0300,-1.7100,-8.7200,0.0000,0.0000,0.0000,0.7702,0.1162,-0.6160,0.1165,9.6100,0.2400,2.0500,0.0000,0.0000,0.0000,0.7376,0.0373,-0.6741,0.0040,9.7500,0.4400,0.7700,0.0000,0.0000,0.0000,0.1667,0.2533,-0.1514,0.9407,5.1300,-1.9600,8.0800,0.0000,0.0000,0.0000
9819,0,0,1,1.2964,4.3945,1.4502,4.5483,-0.0128,0.0165,-0.3076,2.0654,-0.0215,9.9216,0.0096,0.0000,-1.4954,-0.1526,-0.0215,9.9216,0.0096,0.0000,-1.4954,-0.1526,0.0000,0.0000,0.0000,0.0000,0.0000,0.0000,0.0000,0.0000,0.0000,0.0000,0.7619,-0.1589,-0.6177,-0.1116,9.4900,-0.9100,2.3000,0.0000,0.0000,0.0000,0.7593,-0.0201,-0.6485,0.0492,9.5300,-1.0500,1.8700,0.0000,0.0000,0.0000,0.2311,-0.2701,-0.9342,0.0263,4.0000,-1.7200,-8.7300,0.0000,0.0000,0.0000,0.7703,0.1161,-0.6160,0.1165,9.6000,0.2600,2.0400,0.0000,0.0000,0.0000,0.7376,0.0372,-0.6741,0.0039,9.7800,0.4100,0.7800,0.0000,0.0000,0.0000,0.1668,0.2533,-0.1514,0.9407,5.1100,-1.9600,8.0700,0.0000,0.0000,0.0000
9820,0,0,1,1.2964,4.3945,1.4502,4.5483,0.0165,0.0110,-0.3076,2.0654,-0.0982,9.8306,-0.0263,0.0305,-1.2817,-0.3357,-0.0982,9.8306,-0.0263,0.0305,-1.2817,-0.3357,0.0000,0.0000,0.0000,0.0000,0.0000,0.0000,0.0000,0.0000,0.0000,0.0000,0.7619,-0.1589,-0.6177,-0.1116,9.5000,-0.9200,2.3300,0.0000,0.0000,0.0000,0.7593,-0.0201,-0.6485,0.0492,9.5400,-1.0400,1.9000,0.0000,0.0000,0.0000,0.2311,-0.2701,-0.9342,0.0263,4.0000,-1.7200,-8.7300,0.0000,0.0000,0.0000,0.7703,0.1161,-0.6160,0.1164,9.6000,0.2600,2.0300,0.0000,0.0000,0.0000,0.7376,0.0372,-0.6741,0.0039,9.7700,0.4200,0.7500,0.0000,0.0000,0.0000,0.1668,0.2533,-0.1514,0.9407,5.1300,-1.9700,8.0800,0.0000,0.0000,0.0000
9821,0,0,1,1.2964,4.3945,1.4502,4.5483,-0.0073,-0.0110,-0.3076,2.0654,-0.1197,9.7875,0.0024,0.0610,-1.4648,-0.0610,-0.1197,9.7875,0.0024,0.0610,-1.4648,-0.0610,0.0000,0.0000,0.0000,0.0000,0.0000,0.0000,0.0000,0.0000,0.0000,0.0000,0.7619,-0.1589,-0.6178,-0.1116,9.5100,-0.9100,2.3800,0.0000,0.0000,0.0000,0.7593,-0.0201,-0.6485,0.0492,9.5400,-1.0400,1.9000,0.0000,0.0000,0.0000,0.2311,-0.2702,-0.9342,0.0263,4.0300,-1.7100,-8.7300,0.0000,0.0000,0.0000,0.7703,0.1161,-0.6160,0.1164,9.5900,0.2500,2.0100,0.0000,0.0000,0.0000,0.7376,0.0371,-0.6741,0.0039,9.7700,0.4400,0.7600,0.0000,0.0000,0.0000,0.1668,0.2533,-0.1514,0.9407,5.1300,-1.9700,8.0800,0.0000,0.0000,0.0000
9822,0,0,1,1.2964,4.3945,1.4502,4.5483,0.0073,0.0055,-0.3076,2.0654,-0.0168,9.8474,0.0239,0.1526,-1.5259,-0.1831,-0.0168,9.8474,0.0239,0.1526,-1.5259,-0.1831,0.0000,0.0000,0.0000,0.0000,0.0000,0.0000,0.0000,0.0000,0.0000,0.0000,0.7619,-0.1589,-0.6178,-0.1116,9.5400,-0.9300,2.4300,0.0000,0.0000,0.0000,0.7593,-0.0201,-0.6485,0.0492,9.5500,-1.0700,1.8900,0.0000,0.0000,0.0000,0.2311,-0.2702,-0.9342,0.0263,4.0300,-1.7100,-8.7400,0.0000,0.0000,0.0000,0.7703,0.1161,-0.6160,0.1164,9.6100,0.2500,2.0200,0.0000,0.0000,0.0000,0.7376,0.0371,-0.6741,0.0039,9.7700,0.4400,0.7600,0.0000,0.0000,0.0000,0.1668,0.2533,-0.1514,0.9407,5.1400,-1.9600,8.0800,0.0000,0.0000,0.0000
9823,0,0,1,1.2964,4.3945,1.4502,4.5483,0.0073,-0.0293,-0.3076,2.0654,0.0000,9.8785,0.0072,0.1831,-1.5869,-0.2441,0.0000,9.8785,0.0072,0.1831,-1.5869,-0.2441,0.0000,0.0000,0.0000,0.0000,0.0000,0.0000,0.0000,0.0000,0.0000,0.0000,0.7619,-0.1590,-0.6177,-0.1117,9.5200,-0.9100,2.4100,0.0000,0.0000,0.0000,0.7593,-0.0201,-0.6484,0.0491,9.5700,-1.0600,1.9100,0.0000,0.0000,0.0000,0.2311,-0.2702,-0.9342,0.0263,4.0200,-1.7300,-8.7400,0.0000,0.0000,0.0000,0.7703,0.1161,-0.6160,0.1164,9.6100,0.2500,2.0200,0.0000,0.0000,0.0000,0.7376,0.0371,-0.6741,0.0039,9.7800,0.4700,0.7700,0.0000,0.0000,0.0000,0.1668,0.2533,-0.1514,0.9407,5.1200,-1.9700,8.1000,0.0000,0.0000,0.0000
9824,0,0,1,1.2964,4.3945,1.4502,4.5483,-0.0037,0.0055,-0.3076,2.0654,-0.0407,9.8258,0.0527,-0.0305,-1.5259,0.0000,-0.0407,9.8258,0.0527,-0.0305,-1.5259,0.0000,0.0000,0.0000,0.0000,0.0000,0.0000,0.0000,0.0000,0.0000,0.0000,0.0000,0.7619,-0.1590,-0.6177,-0.1117,9.5200,-0.9100,2.4100,0.0000,0.0000,0.0000,0.7593,-0.0201,-0.6484,0.0491,9.5800,-1.0400,1.9100,0.0000,0.0000,0.0000,0.2312,-0.2702,-0.9342,0.0263,4.0200,-1.7300,-8.7400,0.0000,0.0000,0.0000,0.7703,0.1161,-0.6160,0.1164,9.6200,0.2700,2.0400,0.0000,0.0000,0.0000,0.7376,0.0371,-0.6741,0.0038,9.7600,0.4700,0.7700,0.0000,0.0000,0.0000,0.1668,0.2533,-0.1514,0.9407,5.1300,-1.9800,8.1000,0.0000,0.0000,0.0000
9825,0,0,1,1.2964,4.3945,1.4502,4.5483,-0.0018,0.0073,-0.3076,2.0654,-0.0575,9.8210,-0.0168,0.0916,-1.4343,-0.2136,-0.0575,9.8210,-0.0168,0.0916,-1.4343,-0.2136,0.0000,0.0000,0.0000,0.0000,0.0000,0.0000,0.0000,0.0000,0.0000,0.0000,0.7619,-0.1590,-0.6177,-0.1117,9.4900,-0.9200,2.4100,0.0000,0.0000,0.0000,0.7593,-0.0201,-0.6484,0.0491,9.5800,-1.0500,1.9300,0.0000,0.0000,0.0000,0.2312,-0.2702,-0.9342,0.0263,4.0200,-1.7300,-8.7400,0.0000,0.0000,0.0000,0.7703,0.1160,-0.6160,0.1164,9.6400,0.2500,2.0600,0.0000,0.0000,0.0000,0.7376,0.0371,-0.6741,0.0038,9.7700,0.4700,0.7600,0.0000,0.0000,0.0000,0.1668,0.2533,-0.1514,0.9407,5.1300,-1.9800,8.0800,0.0000,0.0000,0.0000
9826,0,0,1,1.2964,4.3945,1.4502,4.5483,0.0092,0.0183,-0.3076,2.0654,-0.0622,9.8330,0.0144,0.0916,-1.8616,-0.2747,-0.0622,9.8330,0.0144,0.0916,-1.8616,-0.2747,0.0000,0.0000,0.0000,0.0000,0.0000,0.0000,0.0000,0.0000,0.0000,0.0000,0.7619,-0.1590,-0.6178,-0.1117,9.4700,-0.9200,2.4000,0.0000,0.0000,0.0000,0.7593,-0.0201,-0.6484,0.0491,9.5800,-1.0500,1.9300,0.0000,0.0000,0.0000,0.2312,-0.2702,-0.9342,0.0263,4.0300,-1.7100,-8.7400,0.0000,0.0000,0.0000,0.7703,0.1160,-0.6160,0.1164,9.6400,0.2900,2.0600,0.0000,0.0000,0.0000,0.7376,0.0371,-0.6741,0.0038,9.7700,0.4700,0.7600,0.0000,0.0000,0.0000,0.1668,0.2533,-0.1514,0.9407,5.1300,-1.9800,8.0800,0.0000,0.0000,0.0000
9827,0,0,1,1.2964,4.3945,1.4502,4.5483,-0.0073,0.0110,-0.3076,2.0654,-0.0311,9.8306,-0.0503,0.1221,-1.6479,-0.0305,-0.0311,9.8306,-0.0503,0.1221,-1.6479,-0.0305,0.0000,0.0000,0.0000,0.0000,0.0000,0.0000,0.0000,0.0000,0.0000,0.0000,0.7618,-0.1590,-0.6178,-0.1117,9.4600,-0.9100,2.3700,0.0000,0.0000,0.0000,0.7593,-0.0201,-0.6484,0.0491,9.5900,-1.0500,1.9700,0.0000,0.0000,0.0000,0.2312,-0.2702,-0.9342,0.0263,4.0400,-1.6900,-8.7500,0.0000,0.0000,0.0000,0.7703,0.1160,-0.6160,0.1164,9.6300,0.2800,2.0600,0.0000,0.0000,0.0000,0.7376,0.0371,-0.6741,0.0038,9.7800,0.4700,0.7700,0.0000,0.0000,0.0000,0.1668,0.2533,-0.1514,0.9407,5.1400,-1.9800,8.0900,0.0000,0.0000,0.0000
9828,0,0,1,1.2964,4.3945,1.4502,4.5483,0.0092,0.0165,-0.3076,2.0654,-0.0072,9.8617,0.0000,-0.0305,-1.6174,-0.0610,-0.0072,9.8617,0.0000,-0.0305,-1.6174,-0.0610,0.0000,0.0000,0.0000,0.0000,0.0000,0.0000,0.0000,0.0000,0.0000,0.0000,0.7619,-0.1591,-0.6177,-0.1117,9.4600,-0.9300,2.3700,0.0000,0.0000,0.0000,0.7593,-0.0201,-0.6484,0.0491,9.5800,-1.0500,1.9800,0.0000,0.0000,0.0000,0.2312,-0.2702,-0.9342,0.0263,4.0500,-1.6900,-8.7500,0.0000,0.0000,0.0000,0.7703,0.1160,-0.6160,0.1164,9.6300,0.2800,2.0600,0.0000,0.0000,0.0000,0.7376,0.0371,-0.6741,0.0038,9.7600,0.4500,0.7700,0.0000,0.0000,0.0000,0.1668,0.2533,-0.1514,0.9407,5.1400,-1.9600,8.0800,0.0000,0.0000,0.0000
9829,0,0,1,1.2964,4.3945,1.4502,4.5483,-0.0073,-0.0238,-0.3076,2.0654,-0.0551,9.8019,-0.0048,0.0000,-1.5869,-0.2441,-0.0551,9.8019,-0.0048,0.0000,-1.5869,-0.2441,0.0000,0.0000,0.0000,0.0000,0.0000,0.0000,0.0000,0.0000,0.0000,0.0000,0.7619,-0.1591,-0.6177,-0.1117,9.4600,-0.9300,2.3700,0.0000,0.0000,0.0000,0.7593,-0.0201,-0.6484,0.0491,9.5600,-1.0400,1.9900,0.0000,0.0000,0.0000,0.2312,-0.2702,-0.9342,0.0263,4.0500,-1.6900,-8.7400,0.0000,0.0000,0.0000,0.7703,0.1159,-0.6160,0.1163,9.5800,0.2600,2.0200,0.0000,0.0000,0.0000,0.7376,0.0371,-0.6741,0.0038,9.7400,0.4400,0.7800,0.0000,0.0000,0.0000,0.1668,0.2533,-0.1514,0.9407,5.1300,-1.9600,8.1000,0.0000,0.0000,0.0000
9830,0,0,1,1.2964,4.3945,1.4502,4.5483,0.0018,-0.0055,-0.3076,2.0654,-0.0096,9.8521,-0.0192,0.0305,-1.7395,-0.0916,-0.0096,9.8521,-0.0192,0.0305,-1.7395,-0.0916,0.0000,0.0000,0.0000,0.0000,0.0000,0.0000,0.0000,0.0000,0.0000,0.0000,0.7619,-0.1591,-0.6178,-0.1117,9.4600,-0.9300,2.3900,0.0000,0.0000,0.0000,0.7593,-0.0201,-0.6484,0.0491,9.5600,-1.0400,1.9900,0.0000,0.0000,0.0000,0.2312,-0.2702,-0.9342,0.0263,4.0500,-1.6900,-8.7400,0.0000,0.0000,0.0000,0.7703,0.1159,-0.6161,0.1163,9.6000,0.2800,1.9900,0.0000,0.0000,0.0000,0.7376,0.0371,-0.6741,0.0038,9.7600,0.4600,0.8000,0.0000,0.0000,0.0000,0.1668,0.2533,-0.1514,0.9407,5.1500,-1.9700,8.0700,0.0000,0.0000,0.0000
9831,0,0,1,1.2964,4.3945,1.4502,4.5483,0.0092,-0.0073,-0.3076,2.0654,0.0168,9.8426,0.0263,0.0000,-1.7700,-0.2136,0.0168,9.8426,0.0263,0.0000,-1.7700,-0.2136,0.0000,0.0000,0.0000,0.0000,0.0000,0.0000,0.0000,0.0000,0.0000,0.0000,0.7618,-0.1590,-0.6178,-0.1117,9.4700,-0.9400,2.4000,0.0000,0.0000,0.0000,0.7593,-0.0201,-0.6484,0.0491,9.5600,-1.0400,1.9900,0.0000,0.0000,0.0000,0.2312,-0.2702,-0.9342,0.0263,4.0400,-1.7100,-8.7300,0.0000,0.0000,0.0000,0.7703,0.1159,-0.6161,0.1162,9.5900,0.3100,2.0300,0.0000,0.0000,0.0000,0.7376,0.0371,-0.6741,0.0038,9.7600,0.4600,0.8000,0.0000,0.0000,0.0000,0.1668,0.2533,-0.1514,0.9407,5.1500,-1.9700,8.0700,0.0000,0.0000,0.0000
9832,0,0,1,1.2964,4.3945,1.4502,4.5483,-0.0110,0.0110,-0.3076,2.0654,-0.0311,9.7923,0.0048,0.0305,-1.6174,-0.1831,-0.0311,9.7923,0.0048,0.0305,-1.6174,-0.1831,0.0000,0.0000,0.0000,0.0000,0.0000,0.0000,0.0000,0.0000,0.0000,0.0000,0.7618,-0.1590,-0.6178,-0.1117,9.4500,-0.9400,2.4300,0.0000,0.0000,0.0000,0.7593,-0.0201,-0.6484,0.0491,9.5500,-1.0300,2.0000,0.0000,0.0000,0.0000,0.2312,-0.2702,-0.9342,0.0263,4.0400,-1.7200,-8.7300,0.0000,0.0000,0.0000,0.7703,0.1159,-0.6161,0.1162,9.5900,0.3100,2.0300,0.0000,0.0000,0.0000,0.7376,0.0371,-0.6741,0.0037,9.7500,0.4600,0.7700,0.0000,0.0000,0.0000,0.1668,0.2533,-0.1514,0.9407,5.1400,-1.9900,8.0800,0.0000,0.0000,0.0000
9833,0,0,1,1.2964,4.3945,1.4502,4.5483,-0.0146,-0.0183,-0.3076,2.0654,-0.0072,9.8857,0.0048,0.0305,-1.6785,0.0305,-0.0072,9.8857,0.0048,0.0305,-1.6785,0.0305,0.0000,0.0000,0.0000,0.0000,0.0000,0.0000,0.0000,0.0000,0.0000,0.0000,0.7619,-0.1591,-0.6178,-0.1118,9.4500,-0.9500,2.4300,0.0000,0.0000,0.0000,0.7593,-0.0202,-0.6484,0.0491,9.5600,-1.0400,1.9900,0.0000,0.0000,0.0000,0.2312,-0.2702,-0.9342,0.0263,4.0400,-1.7200,-8.7200,0.0000,0.0000,0.0000,0.7703,0.1159,-0.6161,0.1162,9.5700,0.3500,2.0000,0.0000,0.0000,0.0000,0.7376,0.0371,-0.6741,0.0037,9.7300,0.4500,0.7700,0.0000,0.0000,0.0000,0.1668,0.2533,-0.1514,0.9407,5.1200,-1.9900,8.0800,0.0000,0.0000,0.0000
9834,0,0,1,1.2964,4.3945,1.4502,4.5483,0.0037,0.0128,-0.3076,2.0654,-0.0479,9.8234,0.0024,0.0610,-1.7090,-0.1526,-0.0479,9.8234,0.0024,0.0610,-1.7090,-0.1526,0.0000,0.0000,0.0000,0.0000,0.0000,0.0000,0.0000,0.0000,0.0000,0.0000,0.7619,-0.1591,-0.6178,-0.1118,9.4500,-0.9500,2.4300,0.0000,0.0000,0.0000,0.7593,-0.0202,-0.6484,0.0491,9.5400,-1.0400,2.0000,0.0000,0.0000,0.0000,0.2312,-0.2702,-0.9342,0.0263,4.0500,-1.7100,-8.7300,0.0000,0.0000,0.0000,0.7703,0.1158,-0.6161,0.1162,9.5900,0.3400,2.0000,0.0000,0.0000,0.0000,0.7376,0.0370,-0.6741,0.0037,9.7300,0.4900,0.7800,0.0000,0.0000,0.0000,0.1669,0.2533,-0.1514,0.9407,5.1300,-1.9800,8.0700,0.0000,0.0000,0.0000
9835,0,0,1,1.2964,4.3945,1.4502,4.5483,-0.0037,0.0146,-0.3076,2.0654,-0.0048,9.7588,0.0072,0.0916,-1.4038,-0.0305,-0.0048,9.7588,0.0072,0.0916,-1.4038,-0.0305,0.0000,0.0000,0.0000,0.0000,0.0000,0.0000,0.0000,0.0000,0.0000,0.0000,0.7618,-0.1591,-0.6178,-0.1118,9.4400,-0.9500,2.4200,0.0000,0.0000,0.0000,0.7593,-0.0202,-0.6484,0.0491,9.5400,-1.0400,2.0000,0.0000,0.0000,0.0000,0.2312,-0.2702,-0.9342,0.0263,4.0500,-1.7100,-8.7300,0.0000,0.0000,0.0000,0.7703,0.1158,-0.6161,0.1162,9.5900,0.3400,1.9900,0.0000,0.0000,0.0000,0.7376,0.0370,-0.6741,0.0037,9.7500,0.5000,0.7900,0.0000,0.0000,0.0000,0.1669,0.2533,-0.1514,0.9407,5.1400,-1.9600,8.0800,0.0000,0.0000,0.0000
9836,0,0,1,1.2964,4.3945,1.4502,4.5483,0.0037,0.0055,-0.3076,2.0654,0.0000,9.8593,0.0024,-0.0610,-1.5564,0.0000,0.0000,9.8593,0.0024,-0.0610,-1.5564,0.0000,0.0000,0.0000,0.0000,0.0000,0.0000,0.0000,0.0000,0.0000,0.0000,0.0000,0.7618,-0.1591,-0.6178,-0.1117,9.4200,-0.9300,2.4300,0.0000,0.0000,0.0000,0.7593,-0.0202,-0.6484,0.0491,9.5400,-1.0600,1.9900,0.0000,0.0000,0.0000,0.2312,-0.2702,-0.9342,0.0263,4.0700,-1.7100,-8.7400,0.0000,0.0000,0.0000,0.7703,0.1158,-0.6161,0.1162,9.5900,0.3400,1.9900,0.0000,0.0000,0.0000,0.7376,0.0370,-0.6741,0.0037,9.7500,0.5100,0.8200,0.0000,0.0000,0.0000,0.1669,0.2533,-0.1514,0.9407,5.1300,-1.9700,8.0700,0.0000,0.0000,0.0000
9837,0,0,1,1.2964,4.3945,1.4502,4.5483,0.0165,-0.0110,-0.3076,2.0654,-0.0670,9.8090,0.0000,0.0000,-1.7090,-0.1831,-0.0670,9.8090,0.0000,0.0000,-1.7090,-0.1831,0.0000,0.0000,0.0000,0.0000,0.0000,0.0000,0.0000,0.0000,0.0000,0.0000,0.7618,-0.1591,-0.6178,-0.1117,9.4100,-0.9400,2.4200,0.0000,0.0000,0.0000,0.7593,-0.0201,-0.6484,0.0491,9.5300,-1.0600,2.0100,0.0000,0.0000,0.0000,0.2312,-0.2702,-0.9342,0.0263,4.0500,-1.6900,-8.7500,0.0000,0.0000,0.0000,0.7703,0.1158,-0.6161,0.1162,9.5900,0.3400,1.9900,0.0000,0.0000,0.0000,0.7376,0.0370,-0.6741,0.0037,9.7500,0.5100,0.8200,0.0000,0.0000,0.0000,0.1669,0.2533,-0.1514,0.9407,5.1300,-1.9700,8.0700,0.0000,0.0000,0.0000
9838,0,0,1,1.2964,4.3945,1.4502,4.5483,-0.0055,-0.0055,-0.3076,2.0654,-0.0192,9.7827,-0.0407,-0.0305,-1.3733,-0.0305,-0.0192,9.7827,-0.0407,-0.0305,-1.3733,-0.0305,0.0000,0.0000,0.0000,0.0000,0.0000,0.0000,0.0000,0.0000,0.0000,0.0000,0.7618,-0.1591,-0.6178,-0.1117,9.4050,-0.9350,2.4100,0.0000,0.0000,0.0000,0.7593,-0.0202,-0.6484,0.0491,9.5300,-1.0800,2.0200,0.0000,0.0000,0.0000,0.2312,-0.2702,-0.9342,0.0263,4.0600,-1.6900,-8.7300,0.0000,0.0000,0.0000,0.7703,0.1158,-0.6161,0.1162,9.5600,0.3200,2.0100,0.0000,0.0000,0.0000,0.7376,0.0370,-0.6741,0.0037,9.7500,0.5000,0.8100,0.0000,0.0000,0.0000,0.1669,0.2533,-0.1514,0.9407,5.1500,-1.9800,8.0800,0.0000,0.0000,0.0000
9839,0,0,1,1.2964,4.3945,1.4502,4.5483,-0.0256,-0.0018,-0.3076,2.0654,-0.0144,9.8019,-0.0168,0.0610,-1.3428,-0.0305,-0.0144,9.8019,-0.0168,0.0610,-1.3428,-0.0305,0.0000,0.0000,0.0000,0.0000,0.0000,0.0000,0.0000,0.0000,0.0000,0.0000,0.7618,-0.1591,-0.6178,-0.1117,9.4000,-0.9300,2.4000,0.0000,0.0000,0.0000,0.7593,-0.0202,-0.6484,0.0491,9.5400,-1.0700,2.0200,0.0000,0.0000,0.0000,0.2312,-0.2702,-0.9342,0.0263,4.0600,-1.6900,-8.7500,0.0000,0.0000,0.0000,0.7703,0.1158,-0.6161,0.1162,9.5500,0.3200,2.0400,0.0000,0.0000,0.0000,0.7376,0.0370,-0.6741,0.0037,9.7200,0.5100,0.8200,0.0000,0.0000,0.0000,0.1669,0.2533,-0.1514,0.9407,5.1500,-1.9800,8.0800,0.0000,0.0000,0.0000
9840,0,0,1,1.2964,4.3945,1.4502,4.5483,-0.0073,-0.0018,-0.3076,2.0654,-0.0072,9.7731,0.0335,-0.0305,-1.3733,0.0610,-0.0072,9.7731,0.0335,-0.0305,-1.3733,0.0610,0.0000,0.0000,0.0000,0.0000,0.0000,0.0000,0.0000,0.0000,0.0000,0.0000,0.7618,-0.1591,-0.6178,-0.1117,9.4000,-0.9300,2.4000,0.0000,0.0000,0.0000,0.7593,-0.0201,-0.6484,0.0491,9.5300,-1.0600,2.0200,0.0000,0.0000,0.0000,0.2312,-0.2702,-0.9342,0.0263,4.0600,-1.6900,-8.7500,0.0000,0.0000,0.0000,0.7703,0.1158,-0.6161,0.1162,9.5400,0.3300,2.0600,0.0000,0.0000,0.0000,0.7376,0.0370,-0.6741,0.0037,9.7300,0.5200,0.8300,0.0000,0.0000,0.0000,0.1669,0.2533,-0.1514,0.9407,5.1400,-1.9800,8.0600,0.0000,0.0000,0.0000
9841,0,0,1,1.2964,4.3945,1.4502,4.5483,-0.0037,-0.0110,-0.3076,2.0654,0.0144,9.8019,0.0000,0.0916,-1.5869,-0.0305,0.0144,9.8019,0.0000,0.0916,-1.5869,-0.0305,0.0000,0.0000,0.0000,0.0000,0.0000,0.0000,0.0000,0.0000,0.0000,0.0000,0.7618,-0.1591,-0.6178,-0.1117,9.4100,-0.9600,2.3800,0.0000,0.0000,0.0000,0.7593,-0.0201,-0.6484,0.0491,9.5300,-1.0600,2.0200,0.0000,0.0000,0.0000,0.2312,-0.2702,-0.9342,0.0263,4.0500,-1.6800,-8.7200,0.0000,0.0000,0.0000,0.7703,0.1158,-0.6161,0.1162,9.5300,0.3100,2.0700,0.0000,0.0000,0.0000,0.7376,0.0370,-0.6741,0.0037,9.7300,0.5000,0.8300,0.0000,0.0000,0.0000,0.1669,0.2533,-0.1514,0.9407,5.1500,-1.9800,8.0700,0.0000,0.0000,0.0000
9842,0,0,1,1.2964,4.3945,1.4502,4.5483,0.0092,0.0165,-0.3076,2.0654,-0.0120,9.7875,-0.0096,-0.2136,-1.5869,-0.0610,-0.0120,9.7875,-0.0096,-0.2136,-1.5869,-0.0610,0.0000,0.0000,0.0000,0.0000,0.0000,0.0000,0.0000,0.0000,0.0000,0.0000,0.7618,-0.1591,-0.6178,-0.1117,9.4100,-0.9700,2.3700,0.0000,0.0000,0.0000,0.7593,-0.0201,-0.6485,0.0491,9.5400,-1.0600,2.0100,0.0000,0.0000,0.0000,0.2312,-0.2702,-0.9342,0.0263,4.0600,-1.7000,-8.7300,0.0000,0.0000,0.0000,0.7703,0.1158,-0.6161,0.1162,9.5300,0.3100,2.0700,0.0000,0.0000,0.0000,0.7376,0.0370,-0.6741,0.0037,9.7300,0.5000,0.8300,0.0000,0.0000,0.0000,0.1669,0.2533,-0.1514,0.9407,5.1500,-1.9800,8.0700,0.0000,0.0000,0.0000
9843,0,0,1,1.2964,4.3945,1.4502,4.5483,-0.0037,0.0330,-0.3076,2.0654,-0.0694,9.7779,0.0096,0.0305,-1.4648,0.0610,-0.0694,9.7779,0.0096,0.0305,-1.4648,0.0610,0.0000,0.0000,0.0000,0.0000,0.0000,0.0000,0.0000,0.0000,0.0000,0.0000,0.7619,-0.1591,-0.6177,-0.1118,9.4300,-0.9600,2.3600,0.0000,0.0000,0.0000,0.7593,-0.0201,-0.6484,0.0491,9.5300,-1.0500,1.9900,0.0000,0.0000,0.0000,0.2312,-0.2702,-0.9342,0.0263,4.0400,-1.7000,-8.7300,0.0000,0.0000,0.0000,0.7703,0.1158,-0.6161,0.1162,9.5300,0.3100,2.0500,0.0000,0.0000,0.0000,0.7376,0.0370,-0.6741,0.0037,9.7400,0.5000,0.8400,0.0000,0.0000,0.0000,0.1669,0.2533,-0.1514,0.9407,5.1400,-1.9700,8.0800,0.0000,0.0000,0.0000
9844,0,0,1,1.2964,4.3945,1.4502,4.5483,0.0165,-0.0092,-0.3076,2.0654,-0.0311,9.8665,-0.0120,-0.1831,-1.5564,-0.0916,-0.0311,9.8665,-0.0120,-0.1831,-1.5564,-0.0916,0.0000,0.0000,0.0000,0.0000,0.0000,0.0000,0.0000,0.0000,0.0000,0.0000,0.7619,-0.1591,-0.6178,-0.1117,9.4200,-0.9700,2.3600,0.0000,0.0000,0.0000,0.7593,-0.0201,-0.6485,0.0491,9.5300,-1.0400,2.0100,0.0000,0.0000,0.0000,0.2312,-0.2702,-0.9342,0.0263,4.0500,-1.7100,-8.7300,0.0000,0.0000,0.0000,0.7703,0.1159,-0.6161,0.1162,9.5300,0.2900,2.0500,0.0000,0.0000,0.0000,0.7376,0.0371,-0.6741,0.0038,9.7400,0.4900,0.8400,0.0000,0.0000,0.0000,0.1668,0.2533,-0.1514,0.9407,5.1400,-1.9600,8.0900,0.0000,0.0000,0.0000
9845,0,0,1,1.2964,4.3945,1.4502,4.5483,0.0110,0.0092,-0.3076,2.0654,-0.0335,9.7875,0.0192,0.0000,-1.5869,-0.0916,-0.0335,9.7875,0.0192,0.0000,-1.5869,-0.0916,0.0000,0.0000,0.0000,0.0000,0.0000,0.0000,0.0000,0.0000,0.0000,0.0000,0.7619,-0.1591,-0.6178,-0.1117,9.4200,-0.9700,2.3600,0.0000,0.0000,0.0000,0.7593,-0.0201,-0.6485,0.0491,9.5300,-1.0300,1.9800,0.0000,0.0000,0.0000,0.2312,-0.2702,-0.9342,0.0263,4.0500,-1.7100,-8.7300,0.0000,0.0000,0.0000,0.7703,0.1159,-0.6161,0.1163,9.5300,0.2800,2.0600,0.0000,0.0000,0.0000,0.7376,0.0371,-0.6741,0.0038,9.7500,0.4800,0.8500,0.0000,0.0000,0.0000,0.1669,0.2533,-0.1514,0.9407,5.1300,-1.9600,8.0800,0.0000,0.0000,0.0000
9846,0,0,1,1.2964,4.3945,1.4502,4.5483,0.0183,0.0256,-0.3076,2.0654,0.0239,9.7875,-0.0192,0.0000,-1.2817,0.0000,0.0239,9.7875,-0.0192,0.0000,-1.2817,0.0000,0.0000,0.0000,0.0000,0.0000,0.0000,0.0000,0.0000,0.0000,0.0000,0.0000,0.7619,-0.1590,-0.6178,-0.1117,9.4400,-0.9400,2.3500,0.0000,0.0000,0.0000,0.7593,-0.0201,-0.6485,0.0491,9.5300,-1.0300,1.9800,0.0000,0.0000,0.0000,0.2312,-0.2702,-0.9342,0.0263,4.0500,-1.7100,-8.7300,0.0000,0.0000,0.0000,0.7703,0.1159,-0.6161,0.1163,9.5400,0.2900,2.0600,0.0000,0.0000,0.0000,0.7376,0.0371,-0.6741,0.0038,9.7500,0.4500,0.8500,0.0000,0.0000,0.0000,0.1669,0.2533,-0.1514,0.9407,5.1300,-1.9600,8.0800,0.0000,0.0000,0.0000
9847,0,0,1,1.2964,4.3945,1.4502,4.5483,0.0055,0.0000,-0.3076,2.0654,0.0335,9.7492,0.0431,-0.0305,-1.5869,-0.2441,0.0335,9.7492,0.0431,-0.0305,-1.5869,-0.2441,0.0000,0.0000,0.0000,0.0000,0.0000,0.0000,0.0000,0.0000,0.0000,0.0000,0.7619,-0.1590,-0.6178,-0.1117,9.4200,-0.9400,2.3500,0.0000,0.0000,0.0000,0.7593,-0.0201,-0.6485,0.0492,9.5100,-1.0300,1.9800,0.0000,0.0000,0.0000,0.2312,-0.2702,-0.9342,0.0263,4.0300,-1.7100,-8.7400,0.0000,0.0000,0.0000,0.7703,0.1159,-0.6161,0.1163,9.5400,0.2900,2.0600,0.0000,0.0000,0.0000,0.7376,0.0371,-0.6741,0.0038,9.7500,0.4500,0.8500,0.0000,0.0000,0.0000,0.1669,0.2533,-0.1514,0.9407,5.1300,-1.9700,8.0600,0.0000,0.0000,0.0000
9848,0,0,1,1.2964,4.3945,1.4502,4.5483,-0.0146,-0.0055,-0.3076,2.0654,0.0024,9.8186,-0.0072,-0.0305,-1.4648,0.0000,0.0024,9.8186,-0.0072,-0.0305,-1.4648,0.0000,0.0000,0.0000,0.0000,0.0000,0.0000,0.0000,0.0000,0.0000,0.0000,0.0000,0.7619,-0.1590,-0.6177,-0.1118,9.4300,-0.9200,2.3500,0.0000,0.0000,0.0000,0.7593,-0.0201,-0.6485,0.0492,9.5300,-1.0300,1.9600,0.0000,0.0000,0.0000,0.2312,-0.2702,-0.9342,0.0263,4.0400,-1.7000,-8.7200,0.0000,0.0000,0.0000,0.7703,0.1159,-0.6161,0.1163,9.5300,0.2800,2.0800,0.0000,0.0000,0.0000,0.7376,0.0371,-0.6741,0.0038,9.7300,0.4200,0.8500,0.0000,0.0000,0.0000,0.1669,0.2533,-0.1514,0.9407,5.1100,-1.9600,8.0700,0.0000,0.0000,0.0000
9849,0,0,1,1.2964,4.3945,1.4502,4.5483,-0.0256,-0.0073,-0.3076,2.0654,0.0000,9.7923,-0.0144,-0.1831,-1.5564,0.0000,0.0000,9.7923,-0.0144,-0.1831,-1.5564,0.0000,0.0000,0.0000,0.0000,0.0000,0.0000,0.0000,0.0000,0.0000,0.0000,0.0000,0.7619,-0.1590,-0.6177,-0.1118,9.4500,-0.9400,2.3300,0.0000,0.0000,0.0000,0.7593,-0.0201,-0.6485,0.0492,9.5200,-1.0300,1.9500,0.0000,0.0000,0.0000,0.2312,-0.2702,-0.9342,0.0263,4.0400,-1.7000,-8.7300,0.0000,0.0000,0.0000,0.7702,0.1159,-0.6161,0.1163,9.5200,0.2500,2.0700,0.0000,0.0000,0.0000,0.7376,0.0372,-0.6741,0.0039,9.7400,0.4300,0.8300,0.0000,0.0000,0.0000,0.1669,0.2533,-0.1514,0.9407,5.1200,-1.9400,8.0800,0.0000,0.0000,0.0000
9850,0,0,1,1.2964,4.3945,1.4502,4.5483,-0.0037,-0.0073,-0.3076,2.0654,-0.1125,9.7492,-0.0192,0.0000,-1.6479,-0.0305,-0.1125,9.7492,-0.0192,0.0000,-1.6479,-0.0305,0.0000,0.0000,0.0000,0.0000,0.0000,0.0000,0.0000,0.0000,0.0000,0.0000,0.7619,-0.1590,-0.6177,-0.1118,9.4500,-0.9400,2.3300,0.0000,0.0000,0.0000,0.7593,-0.0201,-0.6485,0.0492,9.5300,-1.0600,1.9200,0.0000,0.0000,0.0000,0.2312,-0.2702,-0.9342,0.0263,4.0400,-1.7000,-8.7300,0.0000,0.0000,0.0000,0.7702,0.1160,-0.6161,0.1163,9.5400,0.2300,2.0600,0.0000,0.0000,0.0000,0.7376,0.0372,-0.6741,0.0039,9.7400,0.4200,0.8400,0.0000,0.0000,0.0000,0.1669,0.2533,-0.1514,0.9407,5.1200,-1.9600,8.0800,0.0000,0.0000,0.0000
9851,0,0,1,1.2964,4.3945,1.4502,4.5483,0.0092,0.0183,-0.3076,2.0654,-0.0335,9.8019,-0.0096,0.0000,-1.6785,-0.0610,-0.0335,9.8019,-0.0096,0.0000,-1.6785,-0.0610,0.0000,0.0000,0.0000,0.0000,0.0000,0.0000,0.0000,0.0000,0.0000,0.0000,0.7619,-0.1590,-0.6177,-0.1118,9.4400,-0.9400,2.3500,0.0000,0.0000,0.0000,0.7593,-0.0201,-0.6485,0.0492,9.5300,-1.0600,1.9200,0.0000,0.0000,0.0000,0.2312,-0.2702,-0.9342,0.0263,4.0400,-1.7100,-8.7300,0.0000,0.0000,0.0000,0.7702,0.1160,-0.6161,0.1163,9.5300,0.2300,2.0400,0.0000,0.0000,0.0000,0.7376,0.0372,-0.6741,0.0039,9.7600,0.4100,0.8600,0.0000,0.0000,0.0000,0.1669,0.2533,-0.1514,0.9407,5.1200,-1.9600,8.0800,0.0000,0.0000,0.0000
9852,0,0,1,1.2744,4.3945,1.4282,4.5483,0.0110,0.0073,-0.3076,2.0654,-0.0622,9.7875,0.0551,-0.0305,-1.5259,0.0000,-0.0622,9.7875,0.0551,-0.0305,-1.5259,0.0000,0.0000,0.0000,0.0000,0.0000,0.0000,0.0000,0.0000,0.0000,0.0000,0.0000,0.7619,-0.1590,-0.6177,-0.1118,9.4300,-0.9400,2.3500,0.0000,0.0000,0.0000,0.7593,-0.0200,-0.6485,0.0492,9.5300,-1.0600,1.9100,0.0000,0.0000,0.0000,0.2312,-0.2702,-0.9342,0.0263,4.0400,-1.7200,-8.7200,0.0000,0.0000,0.0000,0.7702,0.1160,-0.6161,0.1163,9.5200,0.2500,2.0700,0.0000,0.0000,0.0000,0.7376,0.0372,-0.6741,0.0039,9.7600,0.4100,0.8600,0.0000,0.0000,0.0000,0.1669,0.2533,-0.1514,0.9407,5.1500,-1.9500,8.0800,0.0000,0.0000,0.0000
9853,0,0,1,1.2744,4.3945,1.4282,4.5483,-0.0110,0.0055,-0.3076,2.0654,-0.0383,9.7827,-0.0096,-0.2136,-1.4954,0.2136,-0.0383,9.7827,-0.0096,-0.2136,-1.4954,0.2136,0.0000,0.0000,0.0000,0.0000,0.0000,0.0000,0.0000,0.0000,0.0000,0.0000,0.7619,-0.1590,-0.6176,-0.1118,9.4600,-0.9200,2.3300,0.0000,0.0000,0.0000,0.7592,-0.0199,-0.6485,0.0494,9.5200,-1.0700,1.9200,0.0000,0.0000,0.0000,0.2312,-0.2703,-0.9341,0.0263,4.0500,-1.7100,-8.7200,0.0000,0.0000,0.0000,0.7702,0.1160,-0.6161,0.1163,9.5200,0.2500,2.0700,0.0000,0.0000,0.0000,0.7376,0.0372,-0.6741,0.0039,9.7500,0.4100,0.8600,0.0000,0.0000,0.0000,0.1669,0.2533,-0.1514,0.9407,5.1500,-1.9500,8.0800,0.0000,0.0000,0.0000
9854,0,0,1,1.2744,4.3945,1.4282,4.5483,-0.0092,-0.0018,-0.3076,2.0654,-0.0527,9.8282,0.0144,-0.0610,-1.4954,0.2136,-0.0527,9.8282,0.0144,-0.0610,-1.4954,0.2136,0.0000,0.0000,0.0000,0.0000,0.0000,0.0000,0.0000,0.0000,0.0000,0.0000,0.7619,-0.1590,-0.6176,-0.1118,9.4600,-0.9100,2.3100,0.0000,0.0000,0.0000,0.7592,-0.0199,-0.6485,0.0494,9.5100,-1.0700,1.9100,0.0000,0.0000,0.0000,0.2312,-0.2703,-0.9341,0.0263,4.0400,-1.7200,-8.7300,0.0000,0.0000,0.0000,0.7702,0.1160,-0.6161,0.1163,9.5200,0.2000,2.0500,0.0000,0.0000,0.0000,0.7376,0.0372,-0.6741,0.0039,9.7600,0.4100,0.8600,0.0000,0.0000,0.0000,0.1670,0.2533,-0.1514,0.9407,5.1500,-1.9500,8.0900,0.0000,0.0000,0.0000
9855,0,0,1,1.2744,4.3945,1.4282,4.5483,-0.0146,-0.0128,-0.3076,2.0654,-0.0311,9.8019,-0.0527,-0.0610,-1.5869,0.1526,-0.0311,9.8019,-0.0527,-0.0610,-1.5869,0.1526,0.0000,0.0000,0.0000,0.0000,0.0000,0.0000,0.0000,0.0000,0.0000,0.0000,0.7619,-0.1590,-0.6176,-0.1118,9.4600,-0.9100,2.3100,0.0000,0.0000,0.0000,0.7592,-0.0199,-0.6485,0.0494,9.5100,-1.0700,1.8700,0.0000,0.0000,0.0000,0.2312,-0.2703,-0.9341,0.0263,4.0400,-1.7200,-8.7300,0.0000,0.0000,0.0000,0.7702,0.1160,-0.6161,0.1163,9.5200,0.2100,2.0400,0.0000,0.0000,0.0000,0.7376,0.0372,-0.6741,0.0039,9.7600,0.4200,0.8300,0.0000,0.0000,0.0000,0.1670,0.2533,-0.1514,0.9407,5.1400,-1.9400,8.0900,0.0000,0.0000,0.0000
9856,0,0,1,1.2744,4.3945,1.4282,4.5483,-0.0092,0.0165,-0.3076,2.0654,0.0072,9.8497,-0.0168,-0.1221,-1.4648,0.0000,0.0072,9.8497,-0.0168,-0.1221,-1.4648,0.0000,0.0000,0.0000,0.0000,0.0000,0.0000,0.0000,0.0000,0.0000,0.0000,0.0000,0.7619,-0.1590,-0.6176,-0.1118,9.4700,-0.9100,2.3000,0.0000,0.0000,0.0000,0.7592,-0.0199,-0.6485,0.0494,9.5100,-1.0700,1.8700,0.0000,0.0000,0.0000,0.2312,-0.2703,-0.9341,0.0263,4.0500,-1.7000,-8.7200,0.0000,0.0000,0.0000,0.7702,0.1160,-0.6161,0.1163,9.5200,0.2500,2.0600,0.0000,0.0000,0.0000,0.7376,0.0372,-0.6741,0.0039,9.7400,0.4100,0.8500,0.0000,0.0000,0.0000,0.1670,0.2533,-0.1514,0.9407,5.1400,-1.9500,8.0900,0.0000,0.0000,0.0000
9857,0,0,1,1.2744,4.3945,1.4282,4.5483,0.0110,-0.0201,-0.3076,2.0654,-0.0766,9.8354,-0.0096,-0.0305,-1.6785,0.0610,-0.0766,9.8354,-0.0096,-0.0305,-1.6785,0.0610,0.0000,0.0000,0.0000,0.0000,0.0000,0.0000,0.0000,0.0000,0.0000,0.0000,0.7619,-0.1590,-0.6177,-0.1118,9.4600,-0.9000,2.3200,0.0000,0.0000,0.0000,0.7592,-0.0199,-0.6486,0.0494,9.5200,-1.0700,1.8600,0.0000,0.0000,0.0000,0.2312,-0.2703,-0.9341,0.0263,4.0200,-1.7100,-8.7300,0.0000,0.0000,0.0000,0.7702,0.1160,-0.6161,0.1163,9.5600,0.2100,2.0600,0.0000,0.0000,0.0000,0.7376,0.0372,-0.6741,0.0039,9.7400,0.4100,0.8500,0.0000,0.0000,0.0000,0.1670,0.2533,-0.1514,0.9407,5.1400,-1.9500,8.0900,0.0000,0.0000,0.0000
9858,0,0,1,1.2744,4.3945,1.4282,4.5483,0.0055,-0.0055,-0.3076,2.0654,-0.0694,9.7923,-0.0527,-0.0610,-1.7090,0.0610,-0.0694,9.7923,-0.0527,-0.0610,-1.7090,0.0610,0.0000,0.0000,0.0000,0.0000,0.0000,0.0000,0.0000,0.0000,0.0000,0.0000,0.7620,-0.1590,-0.6176,-0.1119,9.4700,-0.8900,2.2800,0.0000,0.0000,0.0000,0.7592,-0.0200,-0.6485,0.0493,9.5100,-1.0700,1.8500,0.0000,0.0000,0.0000,0.2312,-0.2704,-0.9341,0.0263,4.0400,-1.7000,-8.7200,0.0000,0.0000,0.0000,0.7702,0.1160,-0.6161,0.1163,9.5600,0.2100,2.0600,0.0000,0.0000,0.0000,0.7376,0.0372,-0.6741,0.0039,9.7700,0.4100,0.8300,0.0000,0.0000,0.0000,0.1670,0.2533,-0.1514,0.9407,5.1200,-1.9700,8.0700,0.0000,0.0000,0.0000
9859,0,0,1,1.2744,4.3945,1.4282,4.5483,-0.0165,-0.0128,-0.3076,2.0654,-0.0120,9.8617,0.0503,0.0000,-1.4954,0.1831,-0.0120,9.8617,0.0503,0.0000,-1.4954,0.1831,0.0000,0.0000,0.0000,0.0000,0.0000,0.0000,0.0000,0.0000,0.0000,0.0000,0.7620,-0.1590,-0.6176,-0.1119,9.4700,-0.8900,2.2800,0.0000,0.0000,0.0000,0.7592,-0.0199,-0.6485,0.0493,9.5100,-1.0800,1.8400,0.0000,0.0000,0.0000,0.2312,-0.2704,-0.9341,0.0263,4.0300,-1.7200,-8.7200,0.0000,0.0000,0.0000,0.7703,0.1160,-0.6161,0.1163,9.5500,0.2200,2.0400,0.0000,0.0000,0.0000,0.7376,0.0372,-0.6741,0.0039,9.7600,0.4200,0.8200,0.0000,0.0000,0.0000,0.1669,0.2533,-0.1514,0.9407,5.1200,-1.9500,8.1000,0.0000,0.0000,0.0000
9860,0,0,1,1.2744,4.3945,1.4282,4.5483,0.0146,-0.0183,-0.3076,2.0654,-0.0431,9.8617,0.0192,-0.0305,-1.4648,0.1526,-0.0431,9.8617,0.0192,-0.0305,-1.4648,0.1526,0.0000,0.0000,0.0000,0.0000,0.0000,0.0000,0.0000,0.0000,0.0000,0.0000,0.7620,-0.1590,-0.6176,-0.1119,9.4800,-0.9200,2.2900,0.0000,0.0000,0.0000,0.7592,-0.0199,-0.6485,0.0494,9.5300,-1.0500,1.8700,0.0000,0.0000,0.0000,0.2312,-0.2704,-0.9341,0.0263,4.0300,-1.7200,-8.7200,0.0000,0.0000,0.0000,0.7703,0.1160,-0.6161,0.1163,9.5400,0.2400,2.0800,0.0000,0.0000,0.0000,0.7376,0.0372,-0.6741,0.0039,9.7700,0.4500,0.8100,0.0000,0.0000,0.0000,0.1669,0.2533,-0.1514,0.9407,5.1200,-1.9600,8.0700,0.0000,0.0000,0.0000
9861,0,0,1,1.2744,4.3945,1.4282,4.5483,-0.0092,0.0092,-0.3076,2.0654,-0.0814,9.7731,-0.0287,-0.2136,-1.4343,0.3357,-0.0814,9.7731,-0.0287,-0.2136,-1.4343,0.3357,0.0000,0.0000,0.0000,0.0000,0.0000,0.0000,0.0000,0.0000,0.0000,0.0000,0.7620,-0.1590,-0.6176,-0.1119,9.4600,-0.9300,2.2800,0.0000,0.0000,0.0000,0.7592,-0.0199,-0.6485,0.0494,9.5300,-1.0500,1.8700,0.0000,0.0000,0.0000,0.2312,-0.2704,-0.9341,0.0263,4.0500,-1.7100,-8.7100,0.0000,0.0000,0.0000,0.7703,0.1160,-0.6161,0.1163,9.5500,0.2200,2.0600,0.0000,0.0000,0.0000,0.7376,0.0372,-0.6741,0.0039,9.7700,0.4500,0.8100,0.0000,0.0000,0.0000,0.1669,0.2533,-0.1514,0.9407,5.1400,-1.9600,8.1000,0.0000,0.0000,0.0000
9862,0,0,1,1.2744,4.3945,1.4282,4.5483,-0.0165,-0.0110,-0.3076,2.0654,-0.0479,9.8330,-0.0120,-0.1831,-1.6174,0.1831,-0.0479,9.8330,-0.0120,-0.1831,-1.6174,0.1831,0.0000,0.0000,0.0000,0.0000,0.0000,0.0000,0.0000,0.0000,0.0000,0.0000,0.7620,-0.1590,-0.6176,-0.1119,9.5000,-0.9400,2.2700,0.0000,0.0000,0.0000,0.7592,-0.0199,-0.6485,0.0494,9.5200,-1.0600,1.8600,0.0000,0.0000,0.0000,0.2312,-0.2704,-0.9341,0.0263,4.0500,-1.7100,-8.7200,0.0000,0.0000,0.0000,0.7703,0.1160,-0.6161,0.1163,9.5500,0.2200,2.0600,0.0000,0.0000,0.0000,0.7376,0.0372,-0.6741,0.0039,9.7600,0.4400,0.8300,0.0000,0.0000,0.0000,0.1669,0.2533,-0.1514,0.9407,5.1400,-1.9600,8.1000,0.0000,0.0000,0.0000
9863,0,0,1,1.2744,4.3945,1.4282,4.5483,-0.0128,0.0128,-0.3076,2.0654,-0.0192,9.8378,0.0024,0.0000,-1.4648,0.0305,-0.0192,9.8378,0.0024,0.0000,-1.4648,0.0305,0.0000,0.0000,0.0000,0.0000,0.0000,0.0000,0.0000,0.0000,0.0000,0.0000,0.7620,-0.1590,-0.6176,-0.1119,9.4700,-0.9400,2.2900,0.0000,0.0000,0.0000,0.7592,-0.0199,-0.6485,0.0494,9.5100,-1.0500,1.8700,0.0000,0.0000,0.0000,0.2312,-0.2704,-0.9341,0.0262,4.0400,-1.7100,-8.7400,0.0000,0.0000,0.0000,0.7703,0.1160,-0.6161,0.1163,9.5900,0.2300,2.0600,0.0000,0.0000,0.0000,0.7376,0.0372,-0.6741,0.0039,9.7500,0.4600,0.8300,0.0000,0.0000,0.0000,0.1669,0.2533,-0.1514,0.9407,5.1300,-1.9600,8.0900,0.0000,0.0000,0.0000
9864,0,0,1,1.2744,4.3945,1.4282,4.5483,-0.0165,-0.0165,-0.3076,2.0654,-0.0622,9.8210,0.0311,-0.0610,-1.6174,0.2136,-0.0622,9.8210,0.0311,-0.0610,-1.6174,0.2136,0.0000,0.0000,0.0000,0.0000,0.0000,0.0000,0.0000,0.0000,0.0000,0.0000,0.7620,-0.1590,-0.6176,-0.1119,9.4700,-0.9400,2.2900,0.0000,0.0000,0.0000,0.7592,-0.0199,-0.6485,0.0494,9.5200,-1.0500,1.8700,0.0000,0.0000,0.0000,0.2312,-0.2704,-0.9341,0.0262,4.0400,-1.6900,-8.7300,0.0000,0.0000,0.0000,0.7703,0.1160,-0.6161,0.1163,9.6000,0.2600,2.0700,0.0000,0.0000,0.0000,0.7376,0.0371,-0.6741,0.0038,9.7600,0.4400,0.8200,0.0000,0.0000,0.0000,0.1670,0.2533,-0.1515,0.9407,5.1300,-1.9600,8.0800,0.0000,0.0000,0.0000
9865,0,0,1,1.2744,4.3945,1.4282,4.5483,-0.0092,0.0146,-0.3076,2.0654,-0.0407,9.8545,-0.0168,-0.0610,-1.7395,0.3357,-0.0407,9.8545,-0.0168,-0.0610,-1.7395,0.3357,0.0000,0.0000,0.0000,0.0000,0.0000,0.0000,0.0000,0.0000,0.0000,0.0000,0.7620,-0.1590,-0.6176,-0.1119,9.4900,-0.9300,2.3300,0.0000,0.0000,0.0000,0.7592,-0.0199,-0.6485,0.0494,9.5400,-1.0500,1.8700,0.0000,0.0000,0.0000,0.2312,-0.2704,-0.9341,0.0262,4.0400,-1.6900,-8.7300,0.0000,0.0000,0.0000,0.7703,0.1160,-0.6161,0.1163,9.6000,0.2600,2.0700,0.0000,0.0000,0.0000,0.7376,0.0371,-0.6741,0.0038,9.7700,0.4400,0.7800,0.0000,0.0000,0.0000,0.1670,0.2533,-0.1515,0.9407,5.1200,-1.9500,8.0800,0.0000,0.0000,0.0000
9866,0,0,1,1.2744,4.3945,1.4282,4.5483,-0.0055,0.0073,-0.3076,2.0654,-0.0670,9.8019,-0.0551,-0.0305,-1.4343,0.4883,-0.0670,9.8019,-0.0551,-0.0305,-1.4343,0.4883,0.0000,0.0000,0.0000,0.0000,0.0000,0.0000,0.0000,0.0000,0.0000,0.0000,0.7620,-0.1590,-0.6176,-0.1119,9.4700,-0.9300,2.3500,0.0000,0.0000,0.0000,0.7592,-0.0199,-0.6485,0.0494,9.5400,-1.0500,1.8700,0.0000,0.0000,0.0000,0.2312,-0.2704,-0.9341,0.0262,4.0300,-1.7000,-8.7300,0.0000,0.0000,0.0000,0.7703,0.1160,-0.6161,0.1163,9.5600,0.2700,2.0500,0.0000,0.0000,0.0000,0.7376,0.0371,-0.6741,0.0038,9.7700,0.4400,0.7800,0.0000,0.0000,0.0000,0.1670,0.2533,-0.1515,0.9407,5.1200,-1.9500,8.0800,0.0000,0.0000,0.0000
9867,0,0,1,1.2744,4.3945,1.4282,4.5483,0.0073,-0.0183,-0.3076,2.0654,-0.0287,9.8689,0.0144,0.0000,-1.7090,0.2747,-0.0287,9.8689,0.0144,0.0000,-1.7090,0.2747,0.0000,0.0000,0.0000,0.0000,0.0000,0.0000,0.0000,0.0000,0.0000,0.0000,0.7620,-0.1590,-0.6176,-0.1119,9.4800,-0.9100,2.3700,0.0000,0.0000,0.0000,0.7592,-0.0199,-0.6486,0.0494,9.5600,-1.0400,1.8700,0.0000,0.0000,0.0000,0.2312,-0.2704,-0.9341,0.0263,4.0500,-1.7200,-8.7300,0.0000,0.0000,0.0000,0.7703,0.1160,-0.6161,0.1163,9.5600,0.2700,2.0500,0.0000,0.0000,0.0000,0.7376,0.0371,-0.6741,0.0038,9.7300,0.4500,0.7800,0.0000,0.0000,0.0000,0.1670,0.2533,-0.1515,0.9407,5.1200,-1.9700,8.0900,0.0000,0.0000,0.0000
9868,0,0,1,1.2744,4.3945,1.4282,4.5483,0.0037,0.0055,-0.3076,2.0654,-0.0694,9.8019,-0.0263,-0.0610,-1.6479,0.1221,-0.0694,9.8019,-0.0263,-0.0610,-1.6479,0.1221,0.0000,0.0000,0.0000,0.0000,0.0000,0.0000,0.0000,0.0000,0.0000,0.0000,0.7620,-0.1590,-0.6176,-0.1119,9.4800,-0.9000,2.3400,0.0000,0.0000,0.0000,0.7592,-0.0199,-0.6485,0.0494,9.5600,-1.0600,1.8800,0.0000,0.0000,0.0000,0.2312,-0.2704,-0.9341,0.0262,4.0400,-1.7100,-8.7200,0.0000,0.0000,0.0000,0.7703,0.1160,-0.6161,0.1163,9.5900,0.2600,2.0000,0.0000,0.0000,0.0000,0.7376,0.0371,-0.6741,0.0038,9.7500,0.4400,0.7800,0.0000,0.0000,0.0000,0.1670,0.2533,-0.1515,0.9407,5.1100,-1.9900,8.0700,0.0000,0.0000,0.0000
9869,0,0,1,1.2744,4.3945,1.4282,4.5483,0.0000,-0.0018,-0.3076,2.0654,-0.0215,9.8474,-0.0096,0.0000,-1.6785,0.2136,-0.0215,9.8474,-0.0096,0.0000,-1.6785,0.2136,0.0000,0.0000,0.0000,0.0000,0.0000,0.0000,0.0000,0.0000,0.0000,0.0000,0.7620,-0.1590,-0.6176,-0.1119,9.4800,-0.9000,2.3400,0.0000,0.0000,0.0000,0.7592,-0.0199,-0.6485,0.0494,9.5500,-1.0500,1.8900,0.0000,0.0000,0.0000,0.2312,-0.2704,-0.9341,0.0263,4.0400,-1.7000,-8.7500,0.0000,0.0000,0.0000,0.7703,0.1160,-0.6161,0.1164,9.5700,0.2800,2.0100,0.0000,0.0000,0.0000,0.7376,0.0371,-0.6741,0.0038,9.7500,0.4400,0.7800,0.0000,0.0000,0.0000,0.1670,0.2533,-0.1515,0.9407,5.1300,-1.9700,8.0700,0.0000,0.0000,0.0000
9870,0,0,1,1.2744,4.3945,1.4282,4.5483,-0.0092,-0.0018,-0.3076,2.0654,-0.0766,9.7636,0.0024,-0.0305,-1.6174,0.1831,-0.0766,9.7636,0.0024,-0.0305,-1.6174,0.1831,0.0000,0.0000,0.0000,0.0000,0.0000,0.0000,0.0000,0.0000,0.0000,0.0000,0.7620,-0.1590,-0.6176,-0.1119,9.4800,-0.9100,2.3500,0.0000,0.0000,0.0000,0.7592,-0.0199,-0.6485,0.0494,9.5500,-1.0500,1.9000,0.0000,0.0000,0.0000,0.2312,-0.2704,-0.9341,0.0263,4.0400,-1.7000,-8.7500,0.0000,0.0000,0.0000,0.7703,0.1160,-0.6161,0.1164,9.5800,0.3100,1.9900,0.0000,0.0000,0.0000,0.7376,0.0371,-0.6741,0.0038,9.7600,0.4600,0.7700,0.0000,0.0000,0.0000,0.1670,0.2533,-0.1515,0.9407,5.1100,-1.9700,8.0900,0.0000,0.0000,0.0000
9871,0,0,1,1.2744,4.3945,1.4282,4.5483,0.0055,-0.0110,-0.3076,2.0654,-0.0622,9.8067,-0.0455,-0.0305,-1.5259,0.1831,-0.0622,9.8067,-0.0455,-0.0305,-1.5259,0.1831,0.0000,0.0000,0.0000,0.0000,0.0000,0.0000,0.0000,0.0000,0.0000,0.0000,0.7620,-0.1590,-0.6176,-0.1119,9.4700,-0.9200,2.3300,0.0000,0.0000,0.0000,0.7592,-0.0199,-0.6485,0.0494,9.5500,-1.0500,1.9000,0.0000,0.0000,0.0000,0.2312,-0.2704,-0.9341,0.0262,4.0400,-1.7200,-8.7400,0.0000,0.0000,0.0000,0.7703,0.1160,-0.6161,0.1164,9.5800,0.2900,2.0100,0.0000,0.0000,0.0000,0.7376,0.0371,-0.6741,0.0038,9.7800,0.4500,0.7600,0.0000,0.0000,0.0000,0.1670,0.2533,-0.1515,0.9407,5.1100,-1.9700,8.0900,0.0000,0.0000,0.0000
9872,0,0,1,1.2744,4.3945,1.4282,4.5483,-0.0073,0.0110,-0.3076,2.0654,-0.0335,9.8019,-0.0168,0.1221,-1.4954,0.2136,-0.0335,9.8019,-0.0168,0.1221,-1.4954,0.2136,0.0000,0.0000,0.0000,0.0000,0.0000,0.0000,0.0000,0.0000,0.0000,0.0000,0.7620,-0.1590,-0.6176,-0.1119,9.4800,-0.9100,2.3100,0.0000,0.0000,0.0000,0.7592,-0.0199,-0.6485,0.0494,9.5600,-1.0400,1.8900,0.0000,0.0000,0.0000,0.2312,-0.2704,-0.9341,0.0263,4.0300,-1.7100,-8.7300,0.0000,0.0000,0.0000,0.7703,0.1160,-0.6161,0.1164,9.5800,0.2900,2.0100,0.0000,0.0000,0.0000,0.7376,0.0371,-0.6741,0.0038,9.7800,0.4500,0.7600,0.0000,0.0000,0.0000,0.1670,0.2533,-0.1515,0.9407,5.1100,-1.9800,8.1000,0.0000,0.0000,0.0000
9873,0,0,1,1.2744,4.3945,1.4282,4.5483,-0.0110,0.0092,-0.3076,2.0654,-0.0407,9.8067,0.0072,0.0305,-1.6479,0.3967,-0.0407,9.8067,0.0072,0.0305,-1.6479,0.3967,0.0000,0.0000,0.0000,0.0000,0.0000,0.0000,0.0000,0.0000,0.0000,0.0000,0.7620,-0.1590,-0.6176,-0.1119,9.4700,-0.9200,2.3400,0.0000,0.0000,0.0000,0.7592,-0.0200,-0.6485,0.0493,9.5700,-1.0400,1.9100,0.0000,0.0000,0.0000,0.2312,-0.2704,-0.9341,0.0263,4.0500,-1.7200,-8.7400,0.0000,0.0000,0.0000,0.7703,0.1160,-0.6160,0.1164,9.5900,0.3000,1.9900,0.0000,0.0000,0.0000,0.7376,0.0371,-0.6741,0.0037,9.7600,0.4500,0.7600,0.0000,0.0000,0.0000,0.1670,0.2533,-0.1515,0.9407,5.1200,-1.9900,8.0800,0.0000,0.0000,0.0000
9874,0,0,1,1.2744,4.3945,1.4282,4.5483,-0.0037,0.0128,-0.3076,2.0654,-0.0192,9.8138,-0.0072,0.0610,-1.5869,0.3662,-0.0192,9.8138,-0.0072,0.0610,-1.5869,0.3662,0.0000,0.0000,0.0000,0.0000,0.0000,0.0000,0.0000,0.0000,0.0000,0.0000,0.7620,-0.1590,-0.6176,-0.1119,9.4700,-0.9200,2.3400,0.0000,0.0000,0.0000,0.7592,-0.0200,-0.6485,0.0493,9.5500,-1.0500,1.9200,0.0000,0.0000,0.0000,0.2312,-0.2704,-0.9341,0.0263,4.0200,-1.7000,-8.7300,0.0000,0.0000,0.0000,0.7703,0.1160,-0.6160,0.1164,9.5800,0.3100,2.0100,0.0000,0.0000,0.0000,0.7376,0.0371,-0.6741,0.0037,9.7600,0.4500,0.7600,0.0000,0.0000,0.0000,0.1670,0.2533,-0.1515,0.9407,5.1300,-1.9600,8.0700,0.0000,0.0000,0.0000
9875,0,0,1,1.2744,4.3945,1.4282,4.5483,-0.0092,0.0110,-0.3076,2.0654,-0.0790,9.8162,0.0144,0.0000,-1.6785,0.2747,-0.0790,9.8162,0.0144,0.0000,-1.6785,0.2747,0.0000,0.0000,0.0000,0.0000,0.0000,0.0000,0.0000,0.0000,0.0000,0.0000,0.7620,-0.1590,-0.6176,-0.1119,9.4900,-0.9500,2.3500,0.0000,0.0000,0.0000,0.7592,-0.0200,-0.6485,0.0493,9.5500,-1.0500,1.9200,0.0000,0.0000,0.0000,0.2312,-0.2704,-0.9341,0.0263,4.0200,-1.7000,-8.7300,0.0000,0.0000,0.0000,0.7703,0.1160,-0.6160,0.1164,9.6100,0.3100,2.0100,0.0000,0.0000,0.0000,0.7375,0.0372,-0.6742,0.0038,9.7400,0.4700,0.7600,0.0000,0.0000,0.0000,0.1670,0.2533,-0.1515,0.9407,5.1500,-1.9700,8.0800,0.0000,0.0000,0.0000
9876,0,0,1,1.2744,4.3945,1.4282,4.5483,0.0092,0.0073,-0.3076,2.0654,-0.0239,9.8306,-0.0048,0.1221,-1.7090,0.4578,-0.0239,9.8306,-0.0048,0.1221,-1.7090,0.4578,0.0000,0.0000,0.0000,0.0000,0.0000,0.0000,0.0000,0.0000,0.0000,0.0000,0.7620,-0.1590,-0.6176,-0.1119,9.4900,-0.9300,2.3800,0.0000,0.0000,0.0000,0.7592,-0.0199,-0.6486,0.0493,9.5500,-1.0400,1.9300,0.0000,0.0000,0.0000,0.2312,-0.2704,-0.9341,0.0263,4.0500,-1.7000,-8.7400,0.0000,0.0000,0.0000,0.7703,0.1160,-0.6160,0.1164,9.6000,0.2900,2.0300,0.0000,0.0000,0.0000,0.7375,0.0372,-0.6742,0.0038,9.7300,0.4500,0.7700,0.0000,0.0000,0.0000,0.1670,0.2533,-0.1515,0.9407,5.1500,-1.9700,8.0800,0.0000,0.0000,0.0000
9877,0,0,1,1.2744,4.3945,1.4282,4.5483,-0.0055,-0.0201,-0.3076,2.0654,-0.0599,9.8354,0.0000,-0.0305,-1.5869,0.1831,-0.0599,9.8354,0.0000,-0.0305,-1.5869,0.1831,0.0000,0.0000,0.0000,0.0000,0.0000,0.0000,0.0000,0.0000,0.0000,0.0000,0.7620,-0.1590,-0.6176,-0.1119,9.4800,-0.9200,2.3800,0.0000,0.0000,0.0000,0.7592,-0.0199,-0.6486,0.0493,9.5700,-1.0500,1.9300,0.0000,0.0000,0.0000,0.2312,-0.2704,-0.9341,0.0263,4.0400,-1.7000,-8.7100,0.0000,0.0000,0.0000,0.7703,0.1160,-0.6160,0.1164,9.6000,0.2900,2.0300,0.0000,0.0000,0.0000,0.7375,0.0372,-0.6742,0.0038,9.7300,0.4500,0.7700,0.0000,0.0000,0.0000,0.1670,0.2533,-0.1515,0.9407,5.1300,-1.9600,8.0800,0.0000,0.0000,0.0000
9878,0,0,1,1.2744,4.3945,1.4282,4.5483,0.0055,-0.0110,-0.3076,2.0654,-0.0383,9.8450,0.0215,-0.0916,-1.5869,0.1526,-0.0383,9.8450,0.0215,-0.0916,-1.5869,0.1526,0.0000,0.0000,0.0000,0.0000,0.0000,0.0000,0.0000,0.0000,0.0000,0.0000,0.7620,-0.1590,-0.6176,-0.1119,9.5000,-0.9400,2.3500,0.0000,0.0000,0.0000,0.7592,-0.0199,-0.6486,0.0493,9.5700,-1.0600,1.9300,0.0000,0.0000,0.0000,0.2312,-0.2706,-0.9341,0.0262,4.0400,-1.6900,-8.7300,0.0000,0.0000,0.0000,0.7703,0.1160,-0.6160,0.1164,9.6100,0.2900,2.0300,0.0000,0.0000,0.0000,0.7375,0.0372,-0.6742,0.0038,9.7400,0.4700,0.7600,0.0000,0.0000,0.0000,0.1670,0.2533,-0.1515,0.9407,5.1200,-1.9600,8.0900,0.0000,0.0000,0.0000
9879,0,0,1,1.2744,4.3945,1.4282,4.5483,-0.0092,0.0073,-0.3076,2.0654,-0.0215,9.8593,0.0168,0.0000,-1.8921,0.3052,-0.0215,9.8593,0.0168,0.0000,-1.8921,0.3052,0.0000,0.0000,0.0000,0.0000,0.0000,0.0000,0.0000,0.0000,0.0000,0.0000,0.7620,-0.1590,-0.6176,-0.1119,9.5000,-0.9400,2.3500,0.0000,0.0000,0.0000,0.7592,-0.0199,-0.6485,0.0493,9.5500,-1.0500,1.9300,0.0000,0.0000,0.0000,0.2312,-0.2706,-0.9341,0.0262,4.0400,-1.7000,-8.7400,0.0000,0.0000,0.0000,0.7703,0.1159,-0.6161,0.1163,9.5900,0.2900,2.0500,0.0000,0.0000,0.0000,0.7375,0.0372,-0.6742,0.0039,9.7300,0.4700,0.7600,0.0000,0.0000,0.0000,0.1670,0.2533,-0.1515,0.9407,5.1400,-1.9600,8.0700,0.0000,0.0000,0.0000
9880,0,0,1,1.2744,4.3945,1.4282,4.5483,-0.0110,0.0110,-0.3076,2.0654,-0.0575,9.8162,-0.0144,0.1526,-1.8005,0.0305,-0.0575,9.8162,-0.0144,0.1526,-1.8005,0.0305,0.0000,0.0000,0.0000,0.0000,0.0000,0.0000,0.0000,0.0000,0.0000,0.0000,0.7620,-0.1590,-0.6176,-0.1119,9.4800,-0.9400,2.3500,0.0000,0.0000,0.0000,0.7592,-0.0199,-0.6485,0.0493,9.5300,-1.0700,1.9500,0.0000,0.0000,0.0000,0.2312,-0.2706,-0.9341,0.0262,4.0400,-1.7000,-8.7400,0.0000,0.0000,0.0000,0.7703,0.1159,-0.6161,0.1163,9.5900,0.2600,2.0300,0.0000,0.0000,0.0000,0.7375,0.0372,-0.6742,0.0039,9.7400,0.4600,0.7700,0.0000,0.0000,0.0000,0.1670,0.2533,-0.1515,0.9407,5.1300,-1.9700,8.0700,0.0000,0.0000,0.0000
9881,0,0,1,1.2744,4.3945,1.4282,4.5483,0.0000,-0.0092,-0.3076,2.0654,-0.0886,9.8258,0.0287,-0.0610,-1.6479,0.2441,-0.0886,9.8258,0.0287,-0.0610,-1.6479,0.2441,0.0000,0.0000,0.0000,0.0000,0.0000,0.0000,0.0000,0.0000,0.0000,0.0000,0.7620,-0.1590,-0.6176,-0.1119,9.4600,-0.9400,2.3200,0.0000,0.0000,0.0000,0.7592,-0.0199,-0.6485,0.0493,9.5300,-1.0700,1.9500,0.0000,0.0000,0.0000,0.2312,-0.2706,-0.9341,0.0262,4.0400,-1.6900,-8.7300,0.0000,0.0000,0.0000,0.7703,0.1159,-0.6161,0.1163,9.6000,0.2800,2.0100,0.0000,0.0000,0.0000,0.7375,0.0372,-0.6742,0.0039,9.7500,0.4700,0.7800,0.0000,0.0000,0.0000,0.1670,0.2533,-0.1515,0.9407,5.1300,-1.9700,8.0600,0.0000,0.0000,0.0000
9882,0,0,1,1.2744,4.3945,1.4282,4.5483,0.0110,0.0073,-0.3076,2.0654,-0.0575,9.8545,-0.0096,0.0000,-1.8005,0.4272,-0.0575,9.8545,-0.0096,0.0000,-1.8005,0.4272,0.0000,0.0000,0.0000,0.0000,0.0000,0.0000,0.0000,0.0000,0.0000,0.0000,0.7620,-0.1590,-0.6176,-0.1119,9.4700,-0.9400,2.3200,0.0000,0.0000,0.0000,0.7592,-0.0199,-0.6486,0.0493,9.5400,-1.0400,1.9700,0.0000,0.0000,0.0000,0.2312,-0.2706,-0.9341,0.0262,4.0300,-1.6900,-8.7500,0.0000,0.0000,0.0000,0.7703,0.1159,-0.6161,0.1163,9.5700,0.2700,2.0100,0.0000,0.0000,0.0000,0.7375,0.0372,-0.6742,0.0039,9.7500,0.4700,0.7800,0.0000,0.0000,0.0000,0.1670,0.2533,-0.1515,0.9407,5.1300,-1.9700,8.0600,0.0000,0.0000,0.0000
9883,0,0,1,1.2744,4.3945,1.4282,4.5483,0.0018,-0.0128,-0.3076,2.0654,-0.0551,9.7875,-0.0335,0.0916,-1.6174,0.2747,-0.0551,9.7875,-0.0335,0.0916,-1.6174,0.2747,0.0000,0.0000,0.0000,0.0000,0.0000,0.0000,0.0000,0.0000,0.0000,0.0000,0.7620,-0.1589,-0.6176,-0.1119,9.4800,-0.9400,2.3600,0.0000,0.0000,0.0000,0.7592,-0.0200,-0.6485,0.0493,9.5300,-1.0600,1.9700,0.0000,0.0000,0.0000,0.2312,-0.2705,-0.9341,0.0262,4.0200,-1.7000,-8.7300,0.0000,0.0000,0.0000,0.7703,0.1159,-0.6161,0.1163,9.5700,0.2700,2.0100,0.0000,0.0000,0.0000,0.7375,0.0372,-0.6742,0.0039,9.7400,0.4700,0.7800,0.0000,0.0000,0.0000,0.1670,0.2533,-0.1515,0.9407,5.1400,-1.9700,8.0800,0.0000,0.0000,0.0000
9884,0,0,1,1.2744,4.3945,1.4282,4.5483,-0.0037,0.0092,-0.3076,2.0654,-0.0575,9.7731,0.0096,0.1526,-1.6479,0.2747,-0.0575,9.7731,0.0096,0.1526,-1.6479,0.2747,0.0000,0.0000,0.0000,0.0000,0.0000,0.0000,0.0000,0.0000,0.0000,0.0000,0.7620,-0.1589,-0.6176,-0.1119,9.4800,-0.9400,2.3600,0.0000,0.0000,0.0000,0.7592,-0.0200,-0.6485,0.0493,9.5500,-1.0500,1.9700,0.0000,0.0000,0.0000,0.2312,-0.2705,-0.9341,0.0262,4.0400,-1.7200,-8.7300,0.0000,0.0000,0.0000,0.7703,0.1159,-0.6161,0.1162,9.5400,0.2900,1.9700,0.0000,0.0000,0.0000,0.7375,0.0373,-0.6742,0.0039,9.7400,0.4700,0.7900,0.0000,0.0000,0.0000,0.1671,0.2533,-0.1515,0.9406,5.1300,-1.9400,8.0800,0.0000,0.0000,0.0000
9885,0,0,1,1.2744,4.3945,1.4282,4.5483,-0.0201,0.0092,-0.3076,2.0654,-0.0910,9.8138,0.0096,0.1221,-1.8616,0.1221,-0.0910,9.8138,0.0096,0.1221,-1.8616,0.1221,0.0000,0.0000,0.0000,0.0000,0.0000,0.0000,0.0000,0.0000,0.0000,0.0000,0.7620,-0.1590,-0.6176,-0.1119,9.4700,-0.9000,2.3900,0.0000,0.0000,0.0000,0.7592,-0.0200,-0.6485,0.0493,9.5500,-1.0400,1.9600,0.0000,0.0000,0.0000,0.2312,-0.2705,-0.9341,0.0262,4.0400,-1.7200,-8.7300,0.0000,0.0000,0.0000,0.7703,0.1159,-0.6161,0.1162,9.5700,0.2800,1.9700,0.0000,0.0000,0.0000,0.7375,0.0373,-0.6742,0.0039,9.7300,0.4900,0.7800,0.0000,0.0000,0.0000,0.1671,0.2533,-0.1515,0.9407,5.1400,-1.9900,8.0800,0.0000,0.0000,0.0000
9886,0,0,1,1.2744,4.3945,1.4282,4.5483,-0.0201,-0.0165,-0.3076,2.0654,-0.0862,9.7683,-0.0192,0.0610,-1.7090,0.2747,-0.0862,9.7683,-0.0192,0.0610,-1.7090,0.2747,0.0000,0.0000,0.0000,0.0000,0.0000,0.0000,0.0000,0.0000,0.0000,0.0000,0.7620,-0.1589,-0.6176,-0.1119,9.4500,-0.9000,2.4000,0.0000,0.0000,0.0000,0.7592,-0.0200,-0.6485,0.0493,9.5500,-1.0400,1.9600,0.0000,0.0000,0.0000,0.2312,-0.2705,-0.9341,0.0262,4.0300,-1.7100,-8.7200,0.0000,0.0000,0.0000,0.7703,0.1159,-0.6161,0.1162,9.5600,0.2900,1.9600,0.0000,0.0000,0.0000,0.7375,0.0373,-0.6742,0.0039,9.7200,0.4800,0.7800,0.0000,0.0000,0.0000,0.1671,0.2533,-0.1515,0.9407,5.1400,-1.9900,8.0900,0.0000,0.0000,0.0000
9887,0,0,1,1.2744,4.3945,1.4282,4.5483,-0.0092,0.0201,-0.3076,2.0654,-0.0144,9.7875,-0.0215,0.0916,-1.6785,0.3052,-0.0144,9.7875,-0.0215,0.0916,-1.6785,0.3052,0.0000,0.0000,0.0000,0.0000,0.0000,0.0000,0.0000,0.0000,0.0000,0.0000,0.7620,-0.1589,-0.6176,-0.1119,9.4400,-0.9100,2.4000,0.0000,0.0000,0.0000,0.7592,-0.0199,-0.6485,0.0493,9.5500,-1.0300,1.9600,0.0000,0.0000,0.0000,0.2312,-0.2705,-0.9341,0.0262,4.0400,-1.7100,-8.7300,0.0000,0.0000,0.0000,0.7703,0.1159,-0.6161,0.1162,9.5800,0.2700,1.9600,0.0000,0.0000,0.0000,0.7375,0.0373,-0.6742,0.0039,9.7200,0.4800,0.7800,0.0000,0.0000,0.0000,0.1671,0.2533,-0.1515,0.9407,5.1400,-1.9900,8.0900,0.0000,0.0000,0.0000
9888,0,0,1,1.2744,4.3945,1.4282,4.5483,-0.0238,-0.0073,-0.3076,2.0654,-0.0622,9.8114,0.0072,0.1221,-1.5564,0.1221,-0.0622,9.8114,0.0072,0.1221,-1.5564,0.1221,0.0000,0.0000,0.0000,0.0000,0.0000,0.0000,0.0000,0.0000,0.0000,0.0000,0.7620,-0.1590,-0.6176,-0.1120,9.4400,-0.9000,2.3700,0.0000,0.0000,0.0000,0.7592,-0.0200,-0.6485,0.0493,9.5500,-1.0500,1.9600,0.0000,0.0000,0.0000,0.2312,-0.2705,-0.9341,0.0262,4.0500,-1.7000,-8.7400,0.0000,0.0000,0.0000,0.7703,0.1159,-0.6161,0.1162,9.5800,0.2700,1.9600,0.0000,0.0000,0.0000,0.7375,0.0373,-0.6741,0.0039,9.7100,0.5000,0.7900,0.0000,0.0000,0.0000,0.1671,0.2533,-0.1515,0.9407,5.1400,-1.9800,8.0600,0.0000,0.0000,0.0000
9889,0,0,1,1.2744,4.3945,1.4282,4.5483,0.0183,0.0146,-0.3076,2.0654,-0.0622,9.8138,0.0144,0.0305,-1.6174,0.1526,-0.0622,9.8138,0.0144,0.0305,-1.6174,0.1526,0.0000,0.0000,0.0000,0.0000,0.0000,0.0000,0.0000,0.0000,0.0000,0.0000,0.7620,-0.1590,-0.6176,-0.1120,9.4400,-0.9000,2.3700,0.0000,0.0000,0.0000,0.7592,-0.0200,-0.6485,0.0493,9.5400,-1.0300,1.9600,0.0000,0.0000,0.0000,0.2312,-0.2705,-0.9341,0.0262,4.0600,-1.7100,-8.7300,0.0000,0.0000,0.0000,0.7703,0.1159,-0.6161,0.1162,9.5800,0.2700,1.9600,0.0000,0.0000,0.0000,0.7375,0.0373,-0.6742,0.0039,9.7300,0.4800,0.7900,0.0000,0.0000,0.0000,0.1670,0.2533,-0.1515,0.9407,5.1300,-1.9900,8.0700,0.0000,0.0000,0.0000
9890,0,0,1,1.2744,4.3945,1.4282,4.5483,0.0018,0.0092,-0.3076,2.0654,-0.0575,9.8019,-0.0192,0.2441,-1.4648,0.0305,-0.0575,9.8019,-0.0192,0.2441,-1.4648,0.0305,0.0000,0.0000,0.0000,0.0000,0.0000,0.0000,0.0000,0.0000,0.0000,0.0000,0.7620,-0.1590,-0.6176,-0.1120,9.4500,-0.9300,2.3400,0.0000,0.0000,0.0000,0.7592,-0.0200,-0.6485,0.0493,9.5400,-1.0400,1.9500,0.0000,0.0000,0.0000,0.2312,-0.2705,-0.9341,0.0262,4.0600,-1.7100,-8.7300,0.0000,0.0000,0.0000,0.7703,0.1159,-0.6161,0.1163,9.5800,0.3000,2.0200,0.0000,0.0000,0.0000,0.7375,0.0373,-0.6741,0.0039,9.7300,0.4900,0.8100,0.0000,0.0000,0.0000,0.1670,0.2533,-0.1515,0.9407,5.1100,-1.9700,8.0800,0.0000,0.0000,0.0000
9891,0,0,1,1.2744,4.3945,1.4282,4.5483,-0.0037,-0.0055,-0.3076,2.0654,-0.0455,9.8138,-0.0024,0.1221,-1.4954,0.1221,-0.0455,9.8138,-0.0024,0.1221,-1.4954,0.1221,0.0000,0.0000,0.0000,0.0000,0.0000,0.0000,0.0000,0.0000,0.0000,0.0000,0.7620,-0.1590,-0.6176,-0.1119,9.4600,-0.9400,2.3500,0.0000,0.0000,0.0000,0.7592,-0.0200,-0.6485,0.0493,9.5400,-1.0400,1.9500,0.0000,0.0000,0.0000,0.2312,-0.2705,-0.9341,0.0262,4.0300,-1.7000,-8.7400,0.0000,0.0000,0.0000,0.7703,0.1159,-0.6161,0.1163,9.5600,0.2700,2.0100,0.0000,0.0000,0.0000,0.7375,0.0373,-0.6741,0.0039,9.7300,0.4900,0.8100,0.0000,0.0000,0.0000,0.1670,0.2533,-0.1515,0.9407,5.1100,-1.9700,8.0800,0.0000,0.0000,0.0000
9892,0,0,1,1.2744,4.3945,1.4282,4.5483,0.0146,-0.0201,-0.3076,2.0654,-0.0790,9.8282,0.0000,0.0916,-1.7395,0.1221,-0.0790,9.8282,0.0000,0.0916,-1.7395,0.1221,0.0000,0.0000,0.0000,0.0000,0.0000,0.0000,0.0000,0.0000,0.0000,0.0000,0.7620,-0.1590,-0.6176,-0.1119,9.4400,-0.9500,2.3200,0.0000,0.0000,0.0000,0.7592,-0.0199,-0.6486,0.0493,9.5100,-1.0500,1.9500,0.0000,0.0000,0.0000,0.2312,-0.2705,-0.9341,0.0262,4.0300,-1.7000,-8.7300,0.0000,0.0000,0.0000,0.7703,0.1159,-0.6161,0.1163,9.5600,0.2700,2.0100,0.0000,0.0000,0.0000,0.7375,0.0373,-0.6741,0.0039,9.7500,0.4600,0.8100,0.0000,0.0000,0.0000,0.1670,0.2533,-0.1515,0.9407,5.1200,-1.9500,8.0900,0.0000,0.0000,0.0000
9893,0,0,1,1.2744,4.3945,1.4282,4.5483,-0.0183,0.0055,-0.3076,2.0654,-0.0407,9.8282,-0.0072,0.0916,-1.4954,0.2136,-0.0407,9.8282,-0.0072,0.0916,-1.4954,0.2136,0.0000,0.0000,0.0000,0.0000,0.0000,0.0000,0.0000,0.0000,0.0000,0.0000,0.7620,-0.1590,-0.6175,-0.1121,9.4500,-0.9600,2.3200,0.0000,0.0000,0.0000,0.7592,-0.0199,-0.6485,0.0493,9.5100,-1.0500,1.9400,0.0000,0.0000,0.0000,0.2312,-0.2705,-0.9341,0.0262,4.0300,-1.7100,-8.7300,0.0000,0.0000,0.0000,0.7703,0.1159,-0.6161,0.1163,9.5600,0.2900,2.0300,0.0000,0.0000,0.0000,0.7375,0.0373,-0.6741,0.0039,9.7500,0.4400,0.8000,0.0000,0.0000,0.0000,0.1670,0.2533,-0.1515,0.9407,5.1300,-1.9600,8.0700,0.0000,0.0000,0.0000
9894,0,0,1,1.2744,4.3945,1.4282,4.5483,0.0055,0.0092,-0.3076,2.0654,-0.0239,9.8306,0.0096,0.0000,-1.3733,0.2747,-0.0239,9.8306,0.0096,0.0000,-1.3733,0.2747,0.0000,0.0000,0.0000,0.0000,0.0000,0.0000,0.0000,0.0000,0.0000,0.0000,0.7620,-0.1590,-0.6175,-0.1121,9.4500,-0.9600,2.3200,0.0000,0.0000,0.0000,0.7592,-0.0199,-0.6485,0.0494,9.5400,-1.0500,1.9300,0.0000,0.0000,0.0000,0.2312,-0.2705,-0.9341,0.0262,4.0300,-1.7000,-8.7200,0.0000,0.0000,0.0000,0.7703,0.1160,-0.6161,0.1163,9.5500,0.2600,2.0200,0.0000,0.0000,0.0000,0.7375,0.0374,-0.6742,0.0039,9.7600,0.4400,0.8200,0.0000,0.0000,0.0000,0.1670,0.2533,-0.1515,0.9407,5.1300,-1.9700,8.0700,0.0000,0.0000,0.0000
9895,0,0,1,1.2744,4.3945,1.4282,4.5483,-0.0146,-0.0146,-0.3076,2.0654,-0.0096,9.7971,-0.0335,-0.0305,-1.7090,0.0916,-0.0096,9.7971,-0.0335,-0.0305,-1.7090,0.0916,0.0000,0.0000,0.0000,0.0000,0.0000,0.0000,0.0000,0.0000,0.0000,0.0000,0.7620,-0.1590,-0.6176,-0.1121,9.4700,-0.9600,2.3000,0.0000,0.0000,0.0000,0.7592,-0.0199,-0.6485,0.0494,9.5400,-1.0500,1.9300,0.0000,0.0000,0.0000,0.2312,-0.2705,-0.9341,0.0262,4.0300,-1.7100,-8.7300,0.0000,0.0000,0.0000,0.7703,0.1160,-0.6161,0.1163,9.5400,0.2400,2.0300,0.0000,0.0000,0.0000,0.7375,0.0374,-0.6742,0.0039,9.7700,0.4400,0.8200,0.0000,0.0000,0.0000,0.1670,0.2533,-0.1515,0.9407,5.1500,-1.9500,8.0800,0.0000,0.0000,0.0000
9896,0,0,1,1.2744,4.3945,1.4282,4.5483,-0.0073,0.0073,-0.3076,2.0654,-0.0622,9.7827,-0.0144,0.0610,-1.5259,0.1221,-0.0622,9.7827,-0.0144,0.0610,-1.5259,0.1221,0.0000,0.0000,0.0000,0.0000,0.0000,0.0000,0.0000,0.0000,0.0000,0.0000,0.7620,-0.1590,-0.6176,-0.1121,9.4400,-0.9600,2.2800,0.0000,0.0000,0.0000,0.7592,-0.0199,-0.6485,0.0494,9.5200,-1.0600,1.9200,0.0000,0.0000,0.0000,0.2312,-0.2705,-0.9341,0.0262,4.0300,-1.7200,-8.7400,0.0000,0.0000,0.0000,0.7703,0.1160,-0.6161,0.1163,9.5400,0.2500,2.0400,0.0000,0.0000,0.0000,0.7375,0.0374,-0.6742,0.0039,9.7700,0.4400,0.8200,0.0000,0.0000,0.0000,0.1670,0.2533,-0.1515,0.9407,5.1500,-1.9500,8.0800,0.0000,0.0000,0.0000
9897,0,0,1,1.2744,4.3945,1.4282,4.5483,0.0000,-0.0183,-0.3076,2.0654,-0.0383,9.7588,-0.0048,0.1831,-1.6174,0.1221,-0.0383,9.7588,-0.0048,0.1831,-1.6174,0.1221,0.0000,0.0000,0.0000,0.0000,0.0000,0.0000,0.0000,0.0000,0.0000,0.0000,0.7620,-0.1590,-0.6176,-0.1121,9.4700,-0.9400,2.3000,0.0000,0.0000,0.0000,0.7592,-0.0199,-0.6485,0.0494,9.5400,-1.0900,1.9100,0.0000,0.0000,0.0000,0.2312,-0.2705,-0.9341,0.0262,4.0300,-1.7300,-8.7300,0.0000,0.0000,0.0000,0.7703,0.1160,-0.6161,0.1163,9.5400,0.2500,2.0400,0.0000,0.0000,0.0000,0.7375,0.0374,-0.6741,0.0039,9.7600,0.4400,0.8100,0.0000,0.0000,0.0000,0.1670,0.2533,-0.1515,0.9407,5.1200,-1.9500,8.0800,0.0000,0.0000,0.0000
9898,0,0,1,1.2744,4.3945,1.4282,4.5483,-0.0073,0.0110,-0.3076,2.0654,-0.0120,9.8593,0.0215,0.0916,-1.6479,0.1526,-0.0120,9.8593,0.0215,0.0916,-1.6479,0.1526,0.0000,0.0000,0.0000,0.0000,0.0000,0.0000,0.0000,0.0000,0.0000,0.0000,0.7620,-0.1590,-0.6175,-0.1121,9.4700,-0.9500,2.3200,0.0000,0.0000,0.0000,0.7592,-0.0199,-0.6485,0.0494,9.5500,-1.0800,1.9000,0.0000,0.0000,0.0000,0.2312,-0.2705,-0.9341,0.0262,4.0200,-1.7300,-8.7300,0.0000,0.0000,0.0000,0.7703,0.1160,-0.6161,0.1163,9.5400,0.2500,2.0400,0.0000,0.0000,0.0000,0.7375,0.0374,-0.6741,0.0039,9.7500,0.4500,0.8200,0.0000,0.0000,0.0000,0.1670,0.2533,-0.1515,0.9407,5.1500,-1.9400,8.1000,0.0000,0.0000,0.0000
9899,0,0,1,1.2744,4.3945,1.4282,4.5483,0.0000,0.0055,-0.3076,2.0654,-0.0287,9.8378,0.0335,0.0000,-1.5259,0.1831,-0.0287,9.8378,0.0335,0.0000,-1.5259,0.1831,0.0000,0.0000,0.0000,0.0000,0.0000,0.0000,0.0000,0.0000,0.0000,0.0000,0.7620,-0.1590,-0.6175,-0.1121,9.4700,-0.9500,2.3200,0.0000,0.0000,0.0000,0.7592,-0.0199,-0.6485,0.0494,9.5400,-1.1100,1.9100,0.0000,0.0000,0.0000,0.2312,-0.2705,-0.9341,0.0262,4.0300,-1.7100,-8.7400,0.0000,0.0000,0.0000,0.7703,0.1160,-0.6160,0.1163,9.5700,0.2600,2.0700,0.0000,0.0000,0.0000,0.7376,0.0374,-0.6741,0.0039,9.7600,0.4400,0.8400,0.0000,0.0000,0.0000,0.1670,0.2533,-0.1515,0.9407,5.1400,-1.9500,8.0800,0.0000,0.0000,0.0000
9900,0,0,1,1.2744,4.3945,1.4282,4.5483,0.0055,0.0128,-0.3076,2.0654,-0.0383,9.8330,0.0000,-0.0305,-1.6479,0.1831,-0.0383,9.8330,0.0000,-0.0305,-1.6479,0.1831,0.0000,0.0000,0.0000,0.0000,0.0000,0.0000,0.0000,0.0000,0.0000,0.0000,0.7620,-0.1590,-0.6175,-0.1121,9.4700,-0.9400,2.3400,0.0000,0.0000,0.0000,0.7592,-0.0199,-0.6485,0.0494,9.5600,-1.0900,1.9000,0.0000,0.0000,0.0000,0.2312,-0.2705,-0.9341,0.0262,4.0500,-1.7100,-8.7300,0.0000,0.0000,0.0000,0.7703,0.1160,-0.6160,0.1163,9.5800,0.2700,2.0700,0.0000,0.0000,0.0000,0.7376,0.0374,-0.6741,0.0039,9.7500,0.4500,0.8200,0.0000,0.0000,0.0000,0.1670,0.2533,-0.1515,0.9407,5.1100,-1.9800,8.0800,0.0000,0.0000,0.0000
9901,0,0,1,1.2744,4.3945,1.4282,4.5483,-0.0092,0.0055,-0.3076,2.0654,-0.0622,9.8114,-0.0407,0.0305,-1.4648,0.3662,-0.0622,9.8114,-0.0407,0.0305,-1.4648,0.3662,0.0000,0.0000,0.0000,0.0000,0.0000,0.0000,0.0000,0.0000,0.0000,0.0000,0.7620,-0.1590,-0.6176,-0.1121,9.4600,-0.9200,2.3100,0.0000,0.0000,0.0000,0.7592,-0.0199,-0.6485,0.0494,9.5600,-1.0900,1.9000,0.0000,0.0000,0.0000,0.2312,-0.2705,-0.9341,0.0262,4.0500,-1.7100,-8.7300,0.0000,0.0000,0.0000,0.7703,0.1160,-0.6161,0.1163,9.5700,0.2600,2.0600,0.0000,0.0000,0.0000,0.7376,0.0374,-0.6741,0.0039,9.7600,0.4500,0.8100,0.0000,0.0000,0.0000,0.1670,0.2533,-0.1515,0.9407,5.1100,-1.9800,8.0800,0.0000,0.0000,0.0000
9902,0,0,1,1.2744,4.3945,1.4282,4.5483,0.0128,-0.0110,-0.3076,2.0654,-0.0263,9.8569,0.0335,0.0000,-1.6174,0.1831,-0.0263,9.8569,0.0335,0.0000,-1.6174,0.1831,0.0000,0.0000,0.0000,0.0000,0.0000,0.0000,0.0000,0.0000,0.0000,0.0000,0.7620,-0.1590,-0.6176,-0.1121,9.4700,-0.9200,2.3200,0.0000,0.0000,0.0000,0.7592,-0.0199,-0.6485,0.0494,9.5400,-1.0800,1.8800,0.0000,0.0000,0.0000,0.2312,-0.2705,-0.9341,0.0262,4.0400,-1.6900,-8.7200,0.0000,0.0000,0.0000,0.7703,0.1160,-0.6161,0.1163,9.5700,0.2600,2.0600,0.0000,0.0000,0.0000,0.7376,0.0374,-0.6741,0.0039,9.7600,0.4500,0.8100,0.0000,0.0000,0.0000,0.1670,0.2533,-0.1515,0.9407,5.1400,-1.9500,8.0700,0.0000,0.0000,0.0000
9903,0,0,1,1.2744,4.3945,1.4282,4.5483,-0.0073,0.0055,-0.3076,2.0654,-0.0479,9.8306,-0.0168,0.0916,-1.5869,0.1526,-0.0479,9.8306,-0.0168,0.0916,-1.5869,0.1526,0.0000,0.0000,0.0000,0.0000,0.0000,0.0000,0.0000,0.0000,0.0000,0.0000,0.7620,-0.1590,-0.6175,-0.1121,9.4700,-0.9400,2.3100,0.0000,0.0000,0.0000,0.7593,-0.0200,-0.6485,0.0493,9.5500,-1.0700,1.9000,0.0000,0.0000,0.0000,0.2312,-0.2705,-0.9341,0.0262,4.0400,-1.7200,-8.7300,0.0000,0.0000,0.0000,0.7703,0.1160,-0.6161,0.1163,9.5700,0.2500,2.0900,0.0000,0.0000,0.0000,0.7376,0.0374,-0.6741,0.0039,9.7700,0.4300,0.8100,0.0000,0.0000,0.0000,0.1670,0.2533,-0.1515,0.9407,5.1400,-1.9700,8.0700,0.0000,0.0000,0.0000
9904,0,0,1,1.2744,4.3945,1.4282,4.5483,-0.0092,-0.0165,-0.3076,2.0654,-0.0575,9.8019,0.0024,-0.1221,-1.5564,0.4883,-0.0575,9.8019,0.0024,-0.1221,-1.5564,0.4883,0.0000,0.0000,0.0000,0.0000,0.0000,0.0000,0.0000,0.0000,0.0000,0.0000,0.7620,-0.1590,-0.6175,-0.1121,9.4700,-0.9400,2.3100,0.0000,0.0000,0.0000,0.7593,-0.0199,-0.6485,0.0493,9.5300,-1.0700,1.9000,0.0000,0.0000,0.0000,0.2312,-0.2705,-0.9341,0.0262,4.0200,-1.7100,-8.7300,0.0000,0.0000,0.0000,0.7703,0.1160,-0.6161,0.1163,9.5600,0.2800,2.0900,0.0000,0.0000,0.0000,0.7376,0.0374,-0.6741,0.0039,9.7800,0.4400,0.8100,0.0000,0.0000,0.0000,0.1670,0.2533,-0.1515,0.9407,5.1400,-1.9500,8.0800,0.0000,0.0000,0.0000
9905,0,0,1,1.2744,4.3945,1.4282,4.5483,-0.0073,0.0128,-0.3076,2.0654,-0.0144,9.8737,0.0335,0.0610,-1.5259,0.2441,-0.0144,9.8737,0.0335,0.0610,-1.5259,0.2441,0.0000,0.0000,0.0000,0.0000,0.0000,0.0000,0.0000,0.0000,0.0000,0.0000,0.7620,-0.1590,-0.6175,-0.1121,9.4700,-0.9400,2.3100,0.0000,0.0000,0.0000,0.7593,-0.0199,-0.6485,0.0493,9.5500,-1.0400,1.9100,0.0000,0.0000,0.0000,0.2312,-0.2705,-0.9341,0.0262,4.0300,-1.7050,-8.7300,0.0000,0.0000,0.0000,0.7703,0.1161,-0.6161,0.1163,9.5500,0.2700,2.0500,0.0000,0.0000,0.0000,0.7376,0.0374,-0.6741,0.0039,9.7600,0.4200,0.8100,0.0000,0.0000,0.0000,0.1670,0.2533,-0.1515,0.9407,5.1300,-1.9600,8.0800,0.0000,0.0000,0.0000
9906,0,0,1,1.2744,4.3945,1.4282,4.5483,-0.0238,-0.0183,-0.3076,2.0654,-0.0192,9.7923,0.0024,-0.0916,-1.8005,0.3052,-0.0192,9.7923,0.0024,-0.0916,-1.8005,0.3052,0.0000,0.0000,0.0000,0.0000,0.0000,0.0000,0.0000,0.0000,0.0000,0.0000,0.7620,-0.1590,-0.6175,-0.1121,9.4900,-0.9300,2.3100,0.0000,0.0000,0.0000,0.7593,-0.0199,-0.6485,0.0493,9.5500,-1.0400,1.9100,0.0000,0.0000,0.0000,0.2312,-0.2705,-0.9341,0.0262,4.0400,-1.7000,-8.7300,0.0000,0.0000,0.0000,0.7703,0.1161,-0.6161,0.1163,9.5300,0.2600,2.0400,0.0000,0.0000,0.0000,0.7376,0.0374,-0.6741,0.0039,9.7800,0.4100,0.8200,0.0000,0.0000,0.0000,0.1670,0.2533,-0.1515,0.9407,5.1300,-1.9600,8.0800,0.0000,0.0000,0.0000
9907,0,0,1,1.2744,4.3945,1.4282,4.5483,0.0183,-0.0311,-0.3076,2.0654,-0.0766,9.8019,-0.0239,0.0000,-1.7700,0.0916,-0.0766,9.8019,-0.0239,0.0000,-1.7700,0.0916,0.0000,0.0000,0.0000,0.0000,0.0000,0.0000,0.0000,0.0000,0.0000,0.0000,0.7620,-0.1590,-0.6175,-0.1121,9.4700,-0.9100,2.3400,0.0000,0.0000,0.0000,0.7592,-0.0199,-0.6485,0.0494,9.5500,-1.0500,1.8900,0.0000,0.0000,0.0000,0.2312,-0.2705,-0.9341,0.0262,4.0400,-1.6900,-8.7400,0.0000,0.0000,0.0000,0.7703,0.1161,-0.6161,0.1163,9.5300,0.2600,2.0400,0.0000,0.0000,0.0000,0.7376,0.0374,-0.6741,0.0039,9.7800,0.4100,0.8200,0.0000,0.0000,0.0000,0.1670,0.2533,-0.1515,0.9407,5.1300,-1.9600,8.0800,0.0000,0.0000,0.0000
9908,0,0,1,1.2744,4.3945,1.4282,4.5483,-0.0165,0.0018,-0.3076,2.0654,-0.0311,9.8474,-0.0335,0.0000,-1.5564,0.2136,-0.0311,9.8474,-0.0335,0.0000,-1.5564,0.2136,0.0000,0.0000,0.0000,0.0000,0.0000,0.0000,0.0000,0.0000,0.0000,0.0000,0.7620,-0.1590,-0.6175,-0.1122,9.4900,-0.8900,2.3700,0.0000,0.0000,0.0000,0.7593,-0.0200,-0.6485,0.0493,9.5600,-1.0600,1.8900,0.0000,0.0000,0.0000,0.2312,-0.2704,-0.9341,0.0262,4.0500,-1.6900,-8.7300,0.0000,0.0000,0.0000,0.7703,0.1161,-0.6161,0.1163,9.5400,0.2500,2.0400,0.0000,0.0000,0.0000,0.7376,0.0374,-0.6741,0.0039,9.7600,0.4400,0.8300,0.0000,0.0000,0.0000,0.1670,0.2533,-0.1515,0.9407,5.1300,-1.9500,8.0900,0.0000,0.0000,0.0000
9909,0,0,1,1.2744,4.3945,1.4282,4.5483,0.0201,-0.0256,-0.3076,2.0654,-0.0096,9.8426,0.0000,0.0305,-1.6785,0.3052,-0.0096,9.8426,0.0000,0.0305,-1.6785,0.3052,0.0000,0.0000,0.0000,0.0000,0.0000,0.0000,0.0000,0.0000,0.0000,0.0000,0.7620,-0.1590,-0.6175,-0.1122,9.4900,-0.9200,2.3800,0.0000,0.0000,0.0000,0.7593,-0.0200,-0.6485,0.0493,9.5500,-1.0700,1.9100,0.0000,0.0000,0.0000,0.2312,-0.2704,-0.9341,0.0262,4.0400,-1.6900,-8.7300,0.0000,0.0000,0.0000,0.7703,0.1161,-0.6161,0.1163,9.5700,0.2400,2.0200,0.0000,0.0000,0.0000,0.7376,0.0374,-0.6741,0.0039,9.7500,0.4300,0.8300,0.0000,0.0000,0.0000,0.1670,0.2533,-0.1515,0.9407,5.1300,-1.9500,8.0900,0.0000,0.0000,0.0000
9910,0,0,1,1.2744,4.3945,1.4282,4.5483,-0.0018,-0.0110,-0.3076,2.0654,-0.0096,9.8282,0.0000,-0.0610,-1.7700,0.3052,-0.0096,9.8282,0.0000,-0.0610,-1.7700,0.3052,0.0000,0.0000,0.0000,0.0000,0.0000,0.0000,0.0000,0.0000,0.0000,0.0000,0.7620,-0.1590,-0.6175,-0.1122,9.4900,-0.9200,2.3800,0.0000,0.0000,0.0000,0.7593,-0.0199,-0.6485,0.0493,9.5700,-1.0600,1.9200,0.0000,0.0000,0.0000,0.2312,-0.2704,-0.9341,0.0262,4.0500,-1.7100,-8.7200,0.0000,0.0000,0.0000,0.7703,0.1161,-0.6161,0.1163,9.5700,0.2600,2.0400,0.0000,0.0000,0.0000,0.7376,0.0374,-0.6741,0.0039,9.7500,0.4500,0.8200,0.0000,0.0000,0.0000,0.1670,0.2533,-0.1515,0.9407,5.1400,-1.9700,8.0800,0.0000,0.0000,0.0000
9911,0,0,1,1.2744,4.3945,1.4282,4.5483,-0.0092,0.0165,-0.3076,2.0654,-0.0790,9.7971,-0.0024,0.0000,-1.6479,0.4272,-0.0790,9.7971,-0.0024,0.0000,-1.6479,0.4272,0.0000,0.0000,0.0000,0.0000,0.0000,0.0000,0.0000,0.0000,0.0000,0.0000,0.7620,-0.1590,-0.6175,-0.1122,9.4800,-0.9000,2.3800,0.0000,0.0000,0.0000,0.7593,-0.0199,-0.6485,0.0493,9.5700,-1.0600,1.9200,0.0000,0.0000,0.0000,0.2312,-0.2704,-0.9341,0.0262,4.0500,-1.7100,-8.7200,0.0000,0.0000,0.0000,0.7703,0.1161,-0.6161,0.1163,9.5700,0.2700,2.0400,0.0000,0.0000,0.0000,0.7376,0.0374,-0.6741,0.0039,9.7600,0.4600,0.8500,0.0000,0.0000,0.0000,0.1670,0.2533,-0.1515,0.9407,5.1600,-1.9500,8.0800,0.0000,0.0000,0.0000
9912,0,0,1,1.2744,4.3945,1.4282,4.5483,-0.0092,0.0165,-0.3076,2.0654,-0.0790,9.7971,0.0383,0.1221,-1.9226,0.3967,-0.0790,9.7971,0.0383,0.1221,-1.9226,0.3967,0.0000,0.0000,0.0000,0.0000,0.0000,0.0000,0.0000,0.0000,0.0000,0.0000,0.7620,-0.1590,-0.6175,-0.1122,9.4700,-0.8800,2.3600,0.0000,0.0000,0.0000,0.7593,-0.0199,-0.6485,0.0493,9.5400,-1.0300,1.9200,0.0000,0.0000,0.0000,0.2312,-0.2704,-0.9341,0.0262,4.0300,-1.7100,-8.7300,0.0000,0.0000,0.0000,0.7703,0.1161,-0.6161,0.1164,9.6000,0.2900,2.0300,0.0000,0.0000,0.0000,0.7376,0.0374,-0.6741,0.0039,9.7600,0.4600,0.8500,0.0000,0.0000,0.0000,0.1670,0.2533,-0.1515,0.9407,5.1600,-1.9500,8.0800,0.0000,0.0000,0.0000
9913,0,0,1,1.2744,4.3945,1.4282,4.5483,0.0092,0.0110,-0.3076,2.0654,0.0144,9.8402,0.0335,0.0000,-1.6174,0.2136,0.0144,9.8402,0.0335,0.0000,-1.6174,0.2136,0.0000,0.0000,0.0000,0.0000,0.0000,0.0000,0.0000,0.0000,0.0000,0.0000,0.7620,-0.1590,-0.6175,-0.1122,9.4400,-0.8900,2.3500,0.0000,0.0000,0.0000,0.7593,-0.0200,-0.6484,0.0493,9.5400,-1.0400,1.9300,0.0000,0.0000,0.0000,0.2312,-0.2704,-0.9341,0.0262,4.0500,-1.7000,-8.7500,0.0000,0.0000,0.0000,0.7703,0.1161,-0.6161,0.1164,9.6000,0.2900,2.0300,0.0000,0.0000,0.0000,0.7376,0.0374,-0.6741,0.0039,9.7600,0.4800,0.8200,0.0000,0.0000,0.0000,0.1670,0.2533,-0.1515,0.9407,5.1500,-1.9500,8.0800,0.0000,0.0000,0.0000
9914,0,0,1,1.2744,4.3945,1.4282,4.5483,-0.0110,-0.0092,-0.3076,2.0654,0.0287,9.8330,0.0575,-0.1221,-1.7395,0.3967,0.0287,9.8330,0.0575,-0.1221,-1.7395,0.3967,0.0000,0.0000,0.0000,0.0000,0.0000,0.0000,0.0000,0.0000,0.0000,0.0000,0.7620,-0.1590,-0.6175,-0.1122,9.4800,-0.9000,2.3400,0.0000,0.0000,0.0000,0.7593,-0.0200,-0.6485,0.0493,9.5200,-1.0300,1.9300,0.0000,0.0000,0.0000,0.2312,-0.2704,-0.9341,0.0262,4.0400,-1.6900,-8.7300,0.0000,0.0000,0.0000,0.7703,0.1160,-0.6161,0.1163,9.5600,0.3000,2.0400,0.0000,0.0000,0.0000,0.7376,0.0373,-0.6741,0.0038,9.7600,0.4800,0.8500,0.0000,0.0000,0.0000,0.1670,0.2533,-0.1515,0.9407,5.1500,-1.9700,8.0700,0.0000,0.0000,0.0000
9915,0,0,1,1.2744,4.3945,1.4282,4.5483,0.0055,-0.0018,-0.3076,2.0654,-0.1245,9.7636,-0.0215,0.2136,-1.5564,0.3662,-0.1245,9.7636,-0.0215,0.2136,-1.5564,0.3662,0.0000,0.0000,0.0000,0.0000,0.0000,0.0000,0.0000,0.0000,0.0000,0.0000,0.7620,-0.1590,-0.6175,-0.1122,9.4800,-0.9000,2.3400,0.0000,0.0000,0.0000,0.7593,-0.0200,-0.6485,0.0493,9.5200,-1.0300,1.9300,0.0000,0.0000,0.0000,0.2312,-0.2704,-0.9341,0.0262,4.0500,-1.6900,-8.7300,0.0000,0.0000,0.0000,0.7703,0.1160,-0.6161,0.1163,9.5700,0.2700,2.0200,0.0000,0.0000,0.0000,0.7376,0.0373,-0.6741,0.0038,9.7300,0.4800,0.8200,0.0000,0.0000,0.0000,0.1670,0.2533,-0.1515,0.9407,5.1500,-1.9400,8.0800,0.0000,0.0000,0.0000
9916,0,0,1,1.2744,4.3945,1.4282,4.5483,0.0000,-0.0128,-0.3076,2.0654,-0.0192,9.7731,0.0599,0.1831,-1.5259,0.3662,-0.0192,9.7731,0.0599,0.1831,-1.5259,0.3662,0.0000,0.0000,0.0000,0.0000,0.0000,0.0000,0.0000,0.0000,0.0000,0.0000,0.7620,-0.1590,-0.6175,-0.1122,9.4500,-0.9000,2.3400,0.0000,0.0000,0.0000,0.7593,-0.0200,-0.6485,0.0493,9.5300,-1.0400,1.9200,0.0000,0.0000,0.0000,0.2312,-0.2704,-0.9341,0.0262,4.0500,-1.6900,-8.7300,0.0000,0.0000,0.0000,0.7703,0.1161,-0.6161,0.1163,9.5600,0.2700,2.0000,0.0000,0.0000,0.0000,0.7376,0.0373,-0.6741,0.0038,9.7300,0.4700,0.8300,0.0000,0.0000,0.0000,0.1670,0.2533,-0.1515,0.9407,5.1500,-1.9400,8.0800,0.0000,0.0000,0.0000
9917,0,0,1,1.2744,4.3945,1.4282,4.5483,-0.0165,0.0110,-0.3076,2.0654,-0.0527,9.7875,0.0311,-0.1221,-1.7700,0.2747,-0.0527,9.7875,0.0311,-0.1221,-1.7700,0.2747,0.0000,0.0000,0.0000,0.0000,0.0000,0.0000,0.0000,0.0000,0.0000,0.0000,0.7620,-0.1590,-0.6175,-0.1122,9.4900,-0.9100,2.3500,0.0000,0.0000,0.0000,0.7593,-0.0200,-0.6485,0.0493,9.5500,-1.0100,1.9300,0.0000,0.0000,0.0000,0.2312,-0.2704,-0.9341,0.0262,4.0600,-1.6800,-8.7400,0.0000,0.0000,0.0000,0.7703,0.1161,-0.6161,0.1163,9.5500,0.2900,2.0300,0.0000,0.0000,0.0000,0.7376,0.0373,-0.6741,0.0038,9.7300,0.4700,0.8300,0.0000,0.0000,0.0000,0.1670,0.2533,-0.1515,0.9407,5.1300,-1.9600,8.0700,0.0000,0.0000,0.0000
9918,0,0,1,1.2744,4.3945,1.4282,4.5483,-0.0183,0.0165,-0.3076,2.0654,-0.0144,9.8138,0.0239,0.0000,-1.8311,0.3662,-0.0144,9.8138,0.0239,0.0000,-1.8311,0.3662,0.0000,0.0000,0.0000,0.0000,0.0000,0.0000,0.0000,0.0000,0.0000,0.0000,0.7621,-0.1589,-0.6175,-0.1122,9.4600,-0.9300,2.3700,0.0000,0.0000,0.0000,0.7593,-0.0200,-0.6485,0.0493,9.5400,-1.0500,1.9300,0.0000,0.0000,0.0000,0.2312,-0.2705,-0.9341,0.0262,4.0600,-1.7000,-8.7200,0.0000,0.0000,0.0000,0.7703,0.1161,-0.6161,0.1163,9.5500,0.2900,2.0300,0.0000,0.0000,0.0000,0.7376,0.0373,-0.6741,0.0038,9.7400,0.4800,0.8000,0.0000,0.0000,0.0000,0.1670,0.2533,-0.1515,0.9407,5.1500,-1.9400,8.1000,0.0000,0.0000,0.0000
9919,0,0,1,1.2744,4.3945,1.4282,4.5483,0.0092,0.0238,-0.3076,2.0654,-0.0838,9.7971,0.0072,0.0610,-1.6479,0.2441,-0.0838,9.7971,0.0072,0.0610,-1.6479,0.2441,0.0000,0.0000,0.0000,0.0000,0.0000,0.0000,0.0000,0.0000,0.0000,0.0000,0.7620,-0.1589,-0.6175,-0.1122,9.4600,-0.9300,2.3700,0.0000,0.0000,0.0000,0.7593,-0.0199,-0.6485,0.0494,9.5400,-1.0300,1.9500,0.0000,0.0000,0.0000,0.2312,-0.2705,-0.9341,0.0262,4.0500,-1.6900,-8.7400,0.0000,0.0000,0.0000,0.7703,0.1161,-0.6161,0.1163,9.5400,0.2900,2.0300,0.0000,0.0000,0.0000,0.7376,0.0374,-0.6741,0.0039,9.7600,0.4600,0.8000,0.0000,0.0000,0.0000,0.1671,0.2533,-0.1515,0.9406,5.1500,-1.9600,8.0900,0.0000,0.0000,0.0000
9920,0,0,1,1.2744,4.3945,1.4282,4.5483,0.0128,0.0073,-0.3076,2.0654,-0.0479,9.7875,0.0335,0.0305,-1.7700,0.3357,-0.0479,9.7875,0.0335,0.0305,-1.7700,0.3357,0.0000,0.0000,0.0000,0.0000,0.0000,0.0000,0.0000,0.0000,0.0000,0.0000,0.7620,-0.1589,-0.6175,-0.1122,9.4600,-0.9300,2.3700,0.0000,0.0000,0.0000,0.7593,-0.0199,-0.6485,0.0494,9.5400,-1.0300,1.9400,0.0000,0.0000,0.0000,0.2312,-0.2705,-0.9341,0.0262,4.0500,-1.7200,-8.7300,0.0000,0.0000,0.0000,0.7703,0.1161,-0.6161,0.1163,9.5500,0.2700,2.0500,0.0000,0.0000,0.0000,0.7376,0.0374,-0.6741,0.0039,9.7800,0.4600,0.8000,0.0000,0.0000,0.0000,0.1671,0.2533,-0.1515,0.9406,5.1400,-1.9600,8.0800,0.0000,0.0000,0.0000
9921,0,0,1,1.2744,4.3945,1.4282,4.5483,0.0018,0.0183,-0.3076,2.0654,-0.0694,9.7588,0.0670,0.0000,-1.8005,0.3052,-0.0694,9.7588,0.0670,0.0000,-1.8005,0.3052,0.0000,0.0000,0.0000,0.0000,0.0000,0.0000,0.0000,0.0000,0.0000,0.0000,0.7620,-0.1589,-0.6175,-0.1122,9.4600,-0.9300,2.3600,0.0000,0.0000,0.0000,0.7593,-0.0199,-0.6485,0.0494,9.5400,-1.0300,1.9400,0.0000,0.0000,0.0000,0.2312,-0.2705,-0.9341,0.0262,4.0500,-1.7200,-8.7300,0.0000,0.0000,0.0000,0.7703,0.1161,-0.6161,0.1163,9.5500,0.2700,2.0500,0.0000,0.0000,0.0000,0.7376,0.0374,-0.6741,0.0039,9.7700,0.4600,0.8200,0.0000,0.0000,0.0000,0.1671,0.2533,-0.1515,0.9406,5.1400,-1.9600,8.0800,0.0000,0.0000,0.0000
9922,0,0,1,1.2744,4.3945,1.4282,4.5483,-0.0037,0.0073,-0.3076,2.0654,-0.0335,9.8521,0.0383,-0.1221,-1.7395,0.3052,-0.0335,9.8521,0.0383,-0.1221,-1.7395,0.3052,0.0000,0.0000,0.0000,0.0000,0.0000,0.0000,0.0000,0.0000,0.0000,0.0000,0.7620,-0.1589,-0.6175,-0.1121,9.4700,-0.9200,2.3500,0.0000,0.0000,0.0000,0.7593,-0.0199,-0.6485,0.0494,9.5300,-1.0400,1.9400,0.0000,0.0000,0.0000,0.2312,-0.2705,-0.9341,0.0262,4.0400,-1.7200,-8.7400,0.0000,0.0000,0.0000,0.7703,0.1161,-0.6161,0.1163,9.5500,0.2700,2.0500,0.0000,0.0000,0.0000,0.7376,0.0374,-0.6741,0.0039,9.7700,0.4600,0.8200,0.0000,0.0000,0.0000,0.1671,0.2533,-0.1515,0.9406,5.1200,-1.9700,8.0800,0.0000,0.0000,0.0000
9923,0,0,1,1.2744,4.3945,1.4282,4.5483,-0.0037,-0.0146,-0.3076,2.0654,-0.0455,9.8067,0.0527,-0.0916,-1.7090,0.4883,-0.0455,9.8067,0.0527,-0.0916,-1.7090,0.4883,0.0000,0.0000,0.0000,0.0000,0.0000,0.0000,0.0000,0.0000,0.0000,0.0000,0.7621,-0.1589,-0.6175,-0.1122,9.4500,-0.9300,2.3700,0.0000,0.0000,0.0000,0.7593,-0.0200,-0.6484,0.0493,9.5500,-1.0500,1.9600,0.0000,0.0000,0.0000,0.2312,-0.2705,-0.9341,0.0262,4.0500,-1.7000,-8.7500,0.0000,0.0000,0.0000,0.7703,0.1161,-0.6161,0.1163,9.5700,0.2800,2.1100,0.0000,0.0000,0.0000,0.7376,0.0374,-0.6741,0.0039,9.7600,0.4500,0.8100,0.0000,0.0000,0.0000,0.1671,0.2533,-0.1515,0.9406,5.1200,-1.9600,8.0900,0.0000,0.0000,0.0000
9924,0,0,1,1.2744,4.3945,1.4282,4.5483,0.0146,0.0018,-0.3076,2.0654,-0.0766,9.7779,-0.0048,-0.1221,-1.8921,0.2747,-0.0766,9.7779,-0.0048,-0.1221,-1.8921,0.2747,0.0000,0.0000,0.0000,0.0000,0.0000,0.0000,0.0000,0.0000,0.0000,0.0000,0.7621,-0.1589,-0.6175,-0.1122,9.4500,-0.9300,2.3700,0.0000,0.0000,0.0000,0.7593,-0.0199,-0.6485,0.0493,9.5600,-1.0600,1.9600,0.0000,0.0000,0.0000,0.2312,-0.2705,-0.9341,0.0262,4.0600,-1.7100,-8.7400,0.0000,0.0000,0.0000,0.7703,0.1161,-0.6161,0.1163,9.5600,0.2800,2.0900,0.0000,0.0000,0.0000,0.7376,0.0374,-0.6741,0.0039,9.7400,0.4700,0.8200,0.0000,0.0000,0.0000,0.1671,0.2533,-0.1515,0.9406,5.1300,-1.9500,8.0800,0.0000,0.0000,0.0000
9925,0,0,1,1.2744,4.3945,1.4282,4.5483,0.0238,0.0146,-0.3076,2.0654,-0.0455,9.8234,0.0144,0.0916,-1.7395,0.3052,-0.0455,9.8234,0.0144,0.0916,-1.7395,0.3052,0.0000,0.0000,0.0000,0.0000,0.0000,0.0000,0.0000,0.0000,0.0000,0.0000,0.7621,-0.1589,-0.6175,-0.1122,9.4400,-0.8900,2.3800,0.0000,0.0000,0.0000,0.7593,-0.0199,-0.6485,0.0493,9.5500,-1.0700,1.9600,0.0000,0.0000,0.0000,0.2312,-0.2705,-0.9341,0.0262,4.0700,-1.6900,-8.7400,0.0000,0.0000,0.0000,0.7703,0.1161,-0.6161,0.1163,9.5600,0.2900,2.0700,0.0000,0.0000,0.0000,0.7376,0.0374,-0.6741,0.0039,9.7300,0.4500,0.8300,0.0000,0.0000,0.0000,0.1671,0.2533,-0.1515,0.9406,5.1400,-1.9700,8.0700,0.0000,0.0000,0.0000
9926,0,0,1,1.2744,4.3945,1.4282,4.5483,0.0000,-0.0183,-0.3076,2.0654,-0.0215,9.8450,0.0311,0.0305,-1.7090,0.1221,-0.0215,9.8450,0.0311,0.0305,-1.7090,0.1221,0.0000,0.0000,0.0000,0.0000,0.0000,0.0000,0.0000,0.0000,0.0000,0.0000,0.7621,-0.1589,-0.6175,-0.1122,9.4400,-0.9000,2.3500,0.0000,0.0000,0.0000,0.7593,-0.0199,-0.6485,0.0493,9.5500,-1.0700,1.9600,0.0000,0.0000,0.0000,0.2312,-0.2705,-0.9341,0.0262,4.0700,-1.6900,-8.7400,0.0000,0.0000,0.0000,0.7703,0.1161,-0.6161,0.1163,9.5500,0.2700,2.0600,0.0000,0.0000,0.0000,0.7376,0.0374,-0.6741,0.0039,9.7300,0.4500,0.8300,0.0000,0.0000,0.0000,0.1671,0.2533,-0.1515,0.9406,5.1400,-1.9700,8.0700,0.0000,0.0000,0.0000
9927,0,0,1,1.2744,4.3945,1.4282,4.5483,-0.0073,-0.0037,-0.3076,2.0654,-0.0622,9.8090,0.0192,0.0916,-1.7090,0.4272,-0.0622,9.8090,0.0192,0.0916,-1.7090,0.4272,0.0000,0.0000,0.0000,0.0000,0.0000,0.0000,0.0000,0.0000,0.0000,0.0000,0.7621,-0.1589,-0.6175,-0.1122,9.4400,-0.9200,2.3400,0.0000,0.0000,0.0000,0.7593,-0.0199,-0.6485,0.0493,9.5500,-1.0600,1.9600,0.0000,0.0000,0.0000,0.2312,-0.2705,-0.9341,0.0262,4.0300,-1.7200,-8.7400,0.0000,0.0000,0.0000,0.7703,0.1161,-0.6161,0.1163,9.5500,0.2700,2.0600,0.0000,0.0000,0.0000,0.7376,0.0374,-0.6741,0.0039,9.7400,0.4500,0.8100,0.0000,0.0000,0.0000,0.1671,0.2533,-0.1515,0.9406,5.1500,-1.9700,8.0800,0.0000,0.0000,0.0000
9928,0,0,1,1.2744,4.3945,1.4282,4.5483,-0.0110,0.0073,-0.3076,2.0654,0.0000,9.7875,0.0096,-0.0610,-1.5564,0.3662,0.0000,9.7875,0.0096,-0.0610,-1.5564,0.3662,0.0000,0.0000,0.0000,0.0000,0.0000,0.0000,0.0000,0.0000,0.0000,0.0000,0.7621,-0.1589,-0.6174,-0.1122,9.4500,-0.9100,2.3600,0.0000,0.0000,0.0000,0.7593,-0.0199,-0.6484,0.0494,9.5300,-1.0500,1.9600,0.0000,0.0000,0.0000,0.2312,-0.2704,-0.9341,0.0262,4.0400,-1.7100,-8.7300,0.0000,0.0000,0.0000,0.7703,0.1161,-0.6161,0.1163,9.5500,0.2700,2.0500,0.0000,0.0000,0.0000,0.7376,0.0374,-0.6741,0.0039,9.7700,0.4700,0.8200,0.0000,0.0000,0.0000,0.1671,0.2533,-0.1515,0.9406,5.1300,-1.9600,8.0700,0.0000,0.0000,0.0000
9929,0,0,1,1.2744,4.3945,1.4282,4.5483,0.0146,-0.0165,-0.3076,2.0654,-0.0694,9.7971,-0.0024,-0.0610,-1.8005,0.3967,-0.0694,9.7971,-0.0024,-0.0610,-1.8005,0.3967,0.0000,0.0000,0.0000,0.0000,0.0000,0.0000,0.0000,0.0000,0.0000,0.0000,0.7621,-0.1589,-0.6174,-0.1122,9.4500,-0.9100,2.3600,0.0000,0.0000,0.0000,0.7593,-0.0199,-0.6484,0.0494,9.5400,-1.0400,1.9500,0.0000,0.0000,0.0000,0.2312,-0.2704,-0.9341,0.0262,4.0500,-1.7200,-8.7400,0.0000,0.0000,0.0000,0.7702,0.1161,-0.6161,0.1164,9.5500,0.2800,2.0300,0.0000,0.0000,0.0000,0.7376,0.0374,-0.6741,0.0039,9.7500,0.4600,0.8300,0.0000,0.0000,0.0000,0.1671,0.2533,-0.1515,0.9406,5.1300,-1.9700,8.0600,0.0000,0.0000,0.0000
9930,0,0,1,1.2744,4.3945,1.4282,4.5483,0.0037,0.0073,-0.3076,2.0654,-0.0383,9.8234,-0.0431,-0.0916,-1.6479,0.0916,-0.0383,9.8234,-0.0431,-0.0916,-1.6479,0.0916,0.0000,0.0000,0.0000,0.0000,0.0000,0.0000,0.0000,0.0000,0.0000,0.0000,0.7621,-0.1588,-0.6174,-0.1122,9.4500,-0.9300,2.3800,0.0000,0.0000,0.0000,0.7593,-0.0199,-0.6485,0.0494,9.5400,-1.0400,1.9400,0.0000,0.0000,0.0000,0.2312,-0.2704,-0.9341,0.0262,4.0400,-1.7100,-8.7400,0.0000,0.0000,0.0000,0.7702,0.1161,-0.6161,0.1164,9.5300,0.3000,2.0300,0.0000,0.0000,0.0000,0.7376,0.0374,-0.6741,0.0039,9.7300,0.4400,0.8300,0.0000,0.0000,0.0000,0.1672,0.2533,-0.1515,0.9406,5.1500,-1.9600,8.0800,0.0000,0.0000,0.0000
9931,0,0,1,1.2744,4.3945,1.4282,4.5483,-0.0055,0.0018,-0.3076,2.0654,-0.0335,9.8234,0.0551,-0.2747,-1.8921,0.2747,-0.0335,9.8234,0.0551,-0.2747,-1.8921,0.2747,0.0000,0.0000,0.0000,0.0000,0.0000,0.0000,0.0000,0.0000,0.0000,0.0000,0.7621,-0.1588,-0.6174,-0.1122,9.4600,-0.9500,2.3600,0.0000,0.0000,0.0000,0.7593,-0.0199,-0.6485,0.0494,9.5400,-1.0400,1.9400,0.0000,0.0000,0.0000,0.2312,-0.2704,-0.9341,0.0262,4.0400,-1.7100,-8.7400,0.0000,0.0000,0.0000,0.7702,0.1161,-0.6161,0.1164,9.5400,0.3100,2.0200,0.0000,0.0000,0.0000,0.7376,0.0375,-0.6741,0.0039,9.7700,0.4500,0.8300,0.0000,0.0000,0.0000,0.1672,0.2533,-0.1515,0.9406,5.1400,-1.9800,8.0800,0.0000,0.0000,0.0000
9932,0,0,1,1.2744,4.3945,1.4282,4.5483,-0.0146,-0.0055,-0.3076,2.0654,-0.0335,9.8402,-0.0072,-0.2136,-1.8311,0.0305,-0.0335,9.8402,-0.0072,-0.2136,-1.8311,0.0305,0.0000,0.0000,0.0000,0.0000,0.0000,0.0000,0.0000,0.0000,0.0000,0.0000,0.7621,-0.1588,-0.6175,-0.1121,9.4200,-0.9500,2.3600,0.0000,0.0000,0.0000,0.7593,-0.0199,-0.6485,0.0494,9.5600,-1.0600,1.9500,0.0000,0.0000,0.0000,0.2312,-0.2704,-0.9341,0.0262,4.0400,-1.7200,-8.7300,0.0000,0.0000,0.0000,0.7702,0.1161,-0.6161,0.1164,9.5400,0.3100,2.0200,0.0000,0.0000,0.0000,0.7376,0.0375,-0.6741,0.0039,9.7700,0.4500,0.8300,0.0000,0.0000,0.0000,0.1672,0.2533,-0.1515,0.9406,5.1400,-1.9800,8.0800,0.0000,0.0000,0.0000
9933,0,0,1,1.2744,4.3945,1.4282,4.5483,0.0092,0.0110,-0.3076,2.0654,-0.0575,9.8258,0.0335,-0.0610,-1.5564,0.5188,-0.0575,9.8258,0.0335,-0.0610,-1.5564,0.5188,0.0000,0.0000,0.0000,0.0000,0.0000,0.0000,0.0000,0.0000,0.0000,0.0000,0.7621,-0.1588,-0.6174,-0.1122,9.4300,-0.9300,2.3700,0.0000,0.0000,0.0000,0.7593,-0.0199,-0.6484,0.0494,9.5600,-1.0600,1.9400,0.0000,0.0000,0.0000,0.2312,-0.2705,-0.9341,0.0262,4.0500,-1.7300,-8.7300,0.0000,0.0000,0.0000,0.7702,0.1161,-0.6161,0.1164,9.5600,0.3100,2.0500,0.0000,0.0000,0.0000,0.7376,0.0375,-0.6741,0.0039,9.7400,0.4600,0.8500,0.0000,0.0000,0.0000,0.1672,0.2533,-0.1515,0.9406,5.1400,-1.9600,8.0900,0.0000,0.0000,0.0000
9934,0,0,1,1.2744,4.3945,1.4282,4.5483,0.0146,0.0165,-0.3076,2.0654,-0.0503,9.8019,-0.0096,-0.0610,-1.8921,0.3357,-0.0503,9.8019,-0.0096,-0.0610,-1.8921,0.3357,0.0000,0.0000,0.0000,0.0000,0.0000,0.0000,0.0000,0.0000,0.0000,0.0000,0.7621,-0.1588,-0.6174,-0.1122,9.4300,-0.9300,2.3700,0.0000,0.0000,0.0000,0.7593,-0.0199,-0.6484,0.0494,9.5600,-1.0700,1.9300,0.0000,0.0000,0.0000,0.2312,-0.2705,-0.9341,0.0262,4.0200,-1.7100,-8.7300,0.0000,0.0000,0.0000,0.7702,0.1161,-0.6161,0.1164,9.5600,0.3200,2.0600,0.0000,0.0000,0.0000,0.7376,0.0375,-0.6741,0.0039,9.7400,0.4500,0.8300,0.0000,0.0000,0.0000,0.1671,0.2533,-0.1515,0.9406,5.1300,-1.9600,8.0700,0.0000,0.0000,0.0000
9935,0,0,1,1.2744,4.3945,1.4282,4.5483,-0.0201,-0.0110,-0.3076,2.0654,0.0287,9.8258,0.0694,-0.1831,-1.8616,0.3662,0.0287,9.8258,0.0694,-0.1831,-1.8616,0.3662,0.0000,0.0000,0.0000,0.0000,0.0000,0.0000,0.0000,0.0000,0.0000,0.0000,0.7621,-0.1588,-0.6174,-0.1122,9.4300,-0.9400,2.3700,0.0000,0.0000,0.0000,0.7593,-0.0199,-0.6484,0.0494,9.5600,-1.0800,1.9600,0.0000,0.0000,0.0000,0.2312,-0.2705,-0.9341,0.0262,4.0400,-1.7200,-8.7400,0.0000,0.0000,0.0000,0.7702,0.1161,-0.6161,0.1164,9.5700,0.3100,2.0600,0.0000,0.0000,0.0000,0.7376,0.0375,-0.6741,0.0039,9.7400,0.4400,0.8400,0.0000,0.0000,0.0000,0.1672,0.2533,-0.1515,0.9406,5.1400,-1.9700,8.0800,0.0000,0.0000,0.0000
9936,0,0,1,1.2744,4.3945,1.4282,4.5483,0.0293,-0.0146,-0.3076,2.0654,-0.0455,9.7779,-0.0455,0.0610,-1.6785,0.1526,-0.0455,9.7779,-0.0455,0.0610,-1.6785,0.1526,0.0000,0.0000,0.0000,0.0000,0.0000,0.0000,0.0000,0.0000,0.0000,0.0000,0.7621,-0.1588,-0.6174,-0.1121,9.4500,-0.9200,2.3900,0.0000,0.0000,0.0000,0.7593,-0.0199,-0.6484,0.0494,9.5600,-1.0800,1.9600,0.0000,0.0000,0.0000,0.2312,-0.2705,-0.9341,0.0262,4.0400,-1.7200,-8.7400,0.0000,0.0000,0.0000,0.7702,0.1161,-0.6161,0.1164,9.5700,0.2900,2.0900,0.0000,0.0000,0.0000,0.7376,0.0375,-0.6741,0.0039,9.7300,0.4400,0.8300,0.0000,0.0000,0.0000,0.1672,0.2533,-0.1515,0.9406,5.1400,-1.9600,8.0800,0.0000,0.0000,0.0000
9937,0,0,1,1.2964,4.4165,1.4282,4.5483,-0.0037,0.0073,-0.3076,2.0654,-0.0599,9.7396,0.0263,0.0305,-1.7395,0.4272,-0.0599,9.7396,0.0263,0.0305,-1.7395,0.4272,0.0000,0.0000,0.0000,0.0000,0.0000,0.0000,0.0000,0.0000,0.0000,0.0000,0.7621,-0.1588,-0.6174,-0.1121,9.4600,-0.9500,2.3900,0.0000,0.0000,0.0000,0.7593,-0.0199,-0.6484,0.0494,9.5600,-1.0600,1.9500,0.0000,0.0000,0.0000,0.2312,-0.2705,-0.9341,0.0262,4.0500,-1.7200,-8.7400,0.0000,0.0000,0.0000,0.7702,0.1161,-0.6161,0.1164,9.5700,0.2900,2.0900,0.0000,0.0000,0.0000,0.7376,0.0375,-0.6741,0.0039,9.7300,0.4400,0.8300,0.0000,0.0000,0.0000,0.1672,0.2533,-0.1515,0.9406,5.1400,-1.9600,8.0800,0.0000,0.0000,0.0000
9938,0,0,1,1.2964,4.4165,1.4282,4.5483,-0.0037,0.0092,-0.3076,2.0654,-0.0431,9.8258,0.0120,-0.0305,-1.8921,0.3052,-0.0431,9.8258,0.0120,-0.0305,-1.8921,0.3052,0.0000,0.0000,0.0000,0.0000,0.0000,0.0000,0.0000,0.0000,0.0000,0.0000,0.7621,-0.1588,-0.6174,-0.1122,9.4400,-0.9300,2.3700,0.0000,0.0000,0.0000,0.7593,-0.0199,-0.6485,0.0494,9.5500,-1.0500,1.9500,0.0000,0.0000,0.0000,0.2312,-0.2705,-0.9341,0.0262,4.0500,-1.7000,-8.7300,0.0000,0.0000,0.0000,0.7702,0.1161,-0.6161,0.1164,9.5400,0.2600,2.0900,0.0000,0.0000,0.0000,0.7376,0.0375,-0.6741,0.0039,9.7500,0.4400,0.8400,0.0000,0.0000,0.0000,0.1672,0.2533,-0.1515,0.9406,5.1600,-1.9600,8.0800,0.0000,0.0000,0.0000
9939,0,0,1,1.2964,4.4165,1.4282,4.5483,-0.0146,-0.0092,-0.3076,2.0654,0.0000,9.8402,0.0503,-0.0916,-1.5869,0.4272,0.0000,9.8402,0.0503,-0.0916,-1.5869,0.4272,0.0000,0.0000,0.0000,0.0000,0.0000,0.0000,0.0000,0.0000,0.0000,0.0000,0.7621,-0.1588,-0.6174,-0.1122,9.4400,-0.9300,2.3700,0.0000,0.0000,0.0000,0.7593,-0.0199,-0.6484,0.0494,9.5300,-1.0500,1.9500,0.0000,0.0000,0.0000,0.2312,-0.2705,-0.9341,0.0262,4.0500,-1.7200,-8.7300,0.0000,0.0000,0.0000,0.7702,0.1161,-0.6161,0.1164,9.5100,0.2500,2.1000,0.0000,0.0000,0.0000,0.7376,0.0375,-0.6741,0.0039,9.7700,0.4600,0.8500,0.0000,0.0000,0.0000,0.1672,0.2533,-0.1515,0.9406,5.1300,-1.9700,8.0800,0.0000,0.0000,0.0000
9940,0,0,1,1.2964,4.4165,1.4282,4.5483,0.0055,-0.0055,-0.3076,2.0654,-0.0838,9.7875,0.0048,-0.0610,-1.5564,0.3662,-0.0838,9.7875,0.0048,-0.0610,-1.5564,0.3662,0.0000,0.0000,0.0000,0.0000,0.0000,0.0000,0.0000,0.0000,0.0000,0.0000,0.7621,-0.1588,-0.6174,-0.1122,9.4400,-0.9500,2.3200,0.0000,0.0000,0.0000,0.7593,-0.0199,-0.6484,0.0494,9.5300,-1.0500,1.9400,0.0000,0.0000,0.0000,0.2312,-0.2705,-0.9341,0.0262,4.0400,-1.7000,-8.7300,0.0000,0.0000,0.0000,0.7702,0.1161,-0.6161,0.1164,9.5200,0.2600,2.0600,0.0000,0.0000,0.0000,0.7376,0.0375,-0.6741,0.0039,9.7800,0.4700,0.8500,0.0000,0.0000,0.0000,0.1672,0.2533,-0.1515,0.9406,5.1400,-1.9600,8.0800,0.0000,0.0000,0.0000
9941,0,0,1,1.2964,4.4165,1.4282,4.5483,-0.0201,-0.0128,-0.3076,2.0654,-0.0072,9.7923,0.0144,-0.1221,-1.8005,0.3052,-0.0072,9.7923,0.0144,-0.1221,-1.8005,0.3052,0.0000,0.0000,0.0000,0.0000,0.0000,0.0000,0.0000,0.0000,0.0000,0.0000,0.7621,-0.1588,-0.6174,-0.1122,9.4500,-0.9400,2.3200,0.0000,0.0000,0.0000,0.7593,-0.0199,-0.6484,0.0494,9.5300,-1.0500,1.9400,0.0000,0.0000,0.0000,0.2312,-0.2705,-0.9341,0.0262,4.0400,-1.7000,-8.7300,0.0000,0.0000,0.0000,0.7702,0.1161,-0.6161,0.1164,9.5400,0.2500,2.0600,0.0000,0.0000,0.0000,0.7376,0.0375,-0.6741,0.0039,9.7600,0.4600,0.8500,0.0000,0.0000,0.0000,0.1672,0.2533,-0.1515,0.9406,5.1400,-1.9600,8.0800,0.0000,0.0000,0.0000
9942,0,0,1,1.2964,4.4165,1.4282,4.5483,0.0110,0.0146,-0.3076,2.0654,-0.0503,9.8521,0.0335,-0.2747,-2.0142,0.3967,-0.0503,9.8521,0.0335,-0.2747,-2.0142,0.3967,0.0000,0.0000,0.0000,0.0000,0.0000,0.0000,0.0000,0.0000,0.0000,0.0000,0.7621,-0.1588,-0.6174,-0.1122,9.4500,-0.9400,2.3600,0.0000,0.0000,0.0000,0.7593,-0.0199,-0.6484,0.0494,9.5500,-1.0500,1.9600,0.0000,0.0000,0.0000,0.2312,-0.2705,-0.9341,0.0262,4.0500,-1.7200,-8.7200,0.0000,0.0000,0.0000,0.7702,0.1161,-0.6161,0.1164,9.5400,0.2500,2.0600,0.0000,0.0000,0.0000,0.7376,0.0375,-0.6741,0.0039,9.7600,0.4600,0.8500,0.0000,0.0000,0.0000,0.1672,0.2533,-0.1515,0.9406,5.1400,-1.9600,8.0700,0.0000,0.0000,0.0000
9943,0,0,1,1.2964,4.4165,1.4282,4.5483,0.0110,0.0092,-0.3076,2.0654,-0.0694,9.8090,0.0407,-0.1221,-1.6785,0.4272,-0.0694,9.8090,0.0407,-0.1221,-1.6785,0.4272,0.0000,0.0000,0.0000,0.0000,0.0000,0.0000,0.0000,0.0000,0.0000,0.0000,0.7622,-0.1587,-0.6174,-0.1121,9.4400,-0.9200,2.3800,0.0000,0.0000,0.0000,0.7593,-0.0199,-0.6484,0.0493,9.5500,-1.0500,1.9400,0.0000,0.0000,0.0000,0.2312,-0.2705,-0.9341,0.0262,4.0500,-1.7100,-8.7400,0.0000,0.0000,0.0000,0.7702,0.1161,-0.6161,0.1164,9.5300,0.3000,2.0700,0.0000,0.0000,0.0000,0.7376,0.0375,-0.6741,0.0039,9.7500,0.4900,0.8400,0.0000,0.0000,0.0000,0.1672,0.2533,-0.1515,0.9406,5.1400,-1.9700,8.0800,0.0000,0.0000,0.0000
9944,0,0,1,1.2964,4.4165,1.4282,4.5483,-0.0055,-0.0092,-0.3076,2.0654,-0.0694,9.7731,-0.0287,-0.0916,-1.6479,0.2441,-0.0694,9.7731,-0.0287,-0.0916,-1.6479,0.2441,0.0000,0.0000,0.0000,0.0000,0.0000,0.0000,0.0000,0.0000,0.0000,0.0000,0.7622,-0.1587,-0.6174,-0.1121,9.4400,-0.9200,2.3800,0.0000,0.0000,0.0000,0.7593,-0.0199,-0.6484,0.0494,9.5400,-1.0300,1.9500,0.0000,0.0000,0.0000,0.2312,-0.2705,-0.9341,0.0262,4.0300,-1.7200,-8.7200,0.0000,0.0000,0.0000,0.7702,0.1161,-0.6161,0.1164,9.5500,0.2800,2.0500,0.0000,0.0000,0.0000,0.7376,0.0374,-0.6741,0.0039,9.7600,0.4700,0.8400,0.0000,0.0000,0.0000,0.1670,0.2533,-0.1515,0.9407,5.1400,-1.9700,8.0700,0.0000,0.0000,0.0000
9945,0,0,1,1.2964,4.4165,1.4282,4.5483,-0.0146,-0.0073,-0.3076,2.0654,0.0144,9.8665,0.0263,-0.2136,-2.0752,0.2136,0.0144,9.8665,0.0263,-0.2136,-2.0752,0.2136,0.0000,0.0000,0.0000,0.0000,0.0000,0.0000,0.0000,0.0000,0.0000,0.0000,0.7621,-0.1587,-0.6174,-0.1121,9.4400,-0.9400,2.3900,0.0000,0.0000,0.0000,0.7593,-0.0199,-0.6484,0.0494,9.5400,-1.0400,1.9400,0.0000,0.0000,0.0000,0.2312,-0.2705,-0.9341,0.0262,4.0400,-1.7000,-8.7300,0.0000,0.0000,0.0000,0.7702,0.1161,-0.6161,0.1164,9.5600,0.2800,2.0400,0.0000,0.0000,0.0000,0.7376,0.0374,-0.6741,0.0039,9.7600,0.4800,0.8100,0.0000,0.0000,0.0000,0.1670,0.2533,-0.1515,0.9407,5.1500,-1.9700,8.0800,0.0000,0.0000,0.0000
9946,0,0,1,1.2964,4.4165,1.4282,4.5483,0.0000,-0.0092,-0.3076,2.0654,-0.0335,9.8258,-0.0072,-0.1526,-1.6479,0.6409,-0.0335,9.8258,-0.0072,-0.1526,-1.6479,0.6409,0.0000,0.0000,0.0000,0.0000,0.0000,0.0000,0.0000,0.0000,0.0000,0.0000,0.7621,-0.1587,-0.6174,-0.1121,9.4800,-0.9100,2.3900,0.0000,0.0000,0.0000,0.7593,-0.0199,-0.6484,0.0494,9.5400,-1.0400,1.9400,0.0000,0.0000,0.0000,0.2312,-0.2705,-0.9341,0.0262,4.0400,-1.7000,-8.7300,0.0000,0.0000,0.0000,0.7702,0.1161,-0.6161,0.1164,9.5600,0.2700,2.0400,0.0000,0.0000,0.0000,0.7376,0.0374,-0.6741,0.0039,9.7600,0.4700,0.8200,0.0000,0.0000,0.0000,0.1670,0.2533,-0.1515,0.9407,5.1500,-1.9700,8.0800,0.0000,0.0000,0.0000
9947,0,0,1,1.2964,4.4165,1.4282,4.5483,0.0110,0.0146,-0.3076,2.0654,-0.0383,9.8138,-0.0335,-0.1831,-1.8005,0.3357,-0.0383,9.8138,-0.0335,-0.1831,-1.8005,0.3357,0.0000,0.0000,0.0000,0.0000,0.0000,0.0000,0.0000,0.0000,0.0000,0.0000,0.7621,-0.1587,-0.6174,-0.1121,9.4600,-0.9100,2.3900,0.0000,0.0000,0.0000,0.7593,-0.0199,-0.6484,0.0494,9.5400,-1.0400,1.9400,0.0000,0.0000,0.0000,0.2313,-0.2705,-0.9341,0.0262,4.0300,-1.7000,-8.7300,0.0000,0.0000,0.0000,0.7702,0.1161,-0.6161,0.1164,9.5600,0.2800,2.0600,0.0000,0.0000,0.0000,0.7376,0.0374,-0.6741,0.0039,9.7600,0.4700,0.8200,0.0000,0.0000,0.0000,0.1671,0.2533,-0.1515,0.9407,5.1500,-1.9800,8.0800,0.0000,0.0000,0.0000
9948,0,0,1,1.2964,4.4165,1.4282,4.5483,0.0146,-0.0018,-0.3076,2.0654,-0.0742,9.7971,0.0120,-0.3052,-1.7395,0.2747,-0.0742,9.7971,0.0120,-0.3052,-1.7395,0.2747,0.0000,0.0000,0.0000,0.0000,0.0000,0.0000,0.0000,0.0000,0.0000,0.0000,0.7622,-0.1587,-0.6174,-0.1121,9.4700,-0.9000,2.3700,0.0000,0.0000,0.0000,0.7593,-0.0199,-0.6484,0.0494,9.5400,-1.0400,1.9400,0.0000,0.0000,0.0000,0.2312,-0.2704,-0.9341,0.0262,4.0400,-1.7000,-8.7200,0.0000,0.0000,0.0000,0.7702,0.1161,-0.6161,0.1164,9.5600,0.2800,2.0600,0.0000,0.0000,0.0000,0.7376,0.0374,-0.6741,0.0038,9.7600,0.4400,0.8200,0.0000,0.0000,0.0000,0.1671,0.2533,-0.1515,0.9407,5.1200,-1.9600,8.0900,0.0000,0.0000,0.0000
9949,0,0,1,1.2964,4.4165,1.4282,4.5483,-0.0165,-0.0092,-0.3076,2.0654,-0.0479,9.8306,-0.0551,-0.2747,-1.9531,0.4272,-0.0479,9.8306,-0.0551,-0.2747,-1.9531,0.4272,0.0000,0.0000,0.0000,0.0000,0.0000,0.0000,0.0000,0.0000,0.0000,0.0000,0.7622,-0.1587,-0.6174,-0.1121,9.4700,-0.9000,2.3700,0.0000,0.0000,0.0000,0.7593,-0.0198,-0.6485,0.0495,9.5400,-1.0500,1.9500,0.0000,0.0000,0.0000,0.2312,-0.2704,-0.9341,0.0262,4.0400,-1.7000,-8.7300,0.0000,0.0000,0.0000,0.7702,0.1161,-0.6161,0.1164,9.5500,0.2900,2.0700,0.0000,0.0000,0.0000,0.7376,0.0374,-0.6741,0.0039,9.7300,0.4500,0.8200,0.0000,0.0000,0.0000,0.1670,0.2533,-0.1515,0.9407,5.1200,-1.9700,8.0800,0.0000,0.0000,0.0000
9950,0,0,1,1.2964,4.4165,1.4282,4.5483,-0.0037,0.0220,-0.3076,2.0654,-0.0742,9.8138,0.0024,-0.2441,-1.6785,0.3662,-0.0742,9.8138,0.0024,-0.2441,-1.6785,0.3662,0.0000,0.0000,0.0000,0.0000,0.0000,0.0000,0.0000,0.0000,0.0000,0.0000,0.7622,-0.1587,-0.6174,-0.1121,9.4600,-0.8900,2.3900,0.0000,0.0000,0.0000,0.7593,-0.0198,-0.6485,0.0495,9.5300,-1.0600,1.9400,0.0000,0.0000,0.0000,0.2312,-0.2704,-0.9341,0.0262,4.0600,-1.7200,-8.7400,0.0000,0.0000,0.0000,0.7702,0.1161,-0.6161,0.1164,9.5300,0.2800,2.0700,0.0000,0.0000,0.0000,0.7376,0.0374,-0.6741,0.0039,9.7700,0.4600,0.8200,0.0000,0.0000,0.0000,0.1670,0.2533,-0.1515,0.9407,5.1400,-1.9600,8.0900,0.0000,0.0000,0.0000
9951,0,0,1,1.2964,4.4165,1.4282,4.5483,-0.0128,-0.0073,-0.3076,2.0654,-0.0455,9.8258,0.0000,-0.2747,-1.7700,0.5188,-0.0455,9.8258,0.0000,-0.2747,-1.7700,0.5188,0.0000,0.0000,0.0000,0.0000,0.0000,0.0000,0.0000,0.0000,0.0000,0.0000,0.7622,-0.1587,-0.6174,-0.1121,9.4600,-0.9000,2.3500,0.0000,0.0000,0.0000,0.7593,-0.0198,-0.6485,0.0495,9.5300,-1.0600,1.9400,0.0000,0.0000,0.0000,0.2312,-0.2704,-0.9341,0.0262,4.0600,-1.7200,-8.7400,0.0000,0.0000,0.0000,0.7702,0.1161,-0.6161,0.1164,9.5500,0.2500,2.0600,0.0000,0.0000,0.0000,0.7376,0.0374,-0.6741,0.0039,9.7500,0.4500,0.8000,0.0000,0.0000,0.0000,0.1670,0.2533,-0.1515,0.9407,5.1400,-1.9600,8.0900,0.0000,0.0000,0.0000
9952,0,0,1,1.2964,4.4165,1.4282,4.5483,-0.0092,0.0055,-0.3076,2.0654,-0.0790,9.8186,-0.0048,-0.3357,-1.9531,0.3052,-0.0790,9.8186,-0.0048,-0.3357,-1.9531,0.3052,0.0000,0.0000,0.0000,0.0000,0.0000,0.0000,0.0000,0.0000,0.0000,0.0000,0.7621,-0.1587,-0.6174,-0.1121,9.4500,-0.9100,2.3700,0.0000,0.0000,0.0000,0.7593,-0.0198,-0.6485,0.0495,9.5400,-1.0300,1.9400,0.0000,0.0000,0.0000,0.2312,-0.2704,-0.9341,0.0262,4.0600,-1.7100,-8.7300,0.0000,0.0000,0.0000,0.7703,0.1161,-0.6160,0.1164,9.5300,0.2400,2.0500,0.0000,0.0000,0.0000,0.7376,0.0374,-0.6741,0.0039,9.7500,0.4500,0.8000,0.0000,0.0000,0.0000,0.1670,0.2533,-0.1515,0.9407,5.1300,-1.9500,8.0700,0.0000,0.0000,0.0000
9953,0,0,1,1.2964,4.4165,1.4282,4.5483,-0.0165,0.0128,-0.3076,2.0654,-0.0575,9.7923,-0.0192,-0.2747,-1.6479,0.3967,-0.0575,9.7923,-0.0192,-0.2747,-1.6479,0.3967,0.0000,0.0000,0.0000,0.0000,0.0000,0.0000,0.0000,0.0000,0.0000,0.0000,0.7622,-0.1587,-0.6174,-0.1122,9.4700,-0.9100,2.3500,0.0000,0.0000,0.0000,0.7593,-0.0198,-0.6485,0.0495,9.5500,-1.0400,1.9400,0.0000,0.0000,0.0000,0.2312,-0.2704,-0.9341,0.0263,4.0500,-1.7100,-8.7200,0.0000,0.0000,0.0000,0.7703,0.1161,-0.6160,0.1164,9.5300,0.2400,2.0500,0.0000,0.0000,0.0000,0.7376,0.0374,-0.6741,0.0039,9.7500,0.4500,0.7900,0.0000,0.0000,0.0000,0.1670,0.2533,-0.1515,0.9407,5.1300,-1.9600,8.0800,0.0000,0.0000,0.0000
9954,0,0,1,1.2964,4.4165,1.4282,4.5483,-0.0110,-0.0238,-0.3076,2.0654,0.0000,9.8641,0.0120,-0.2136,-1.6479,0.3967,0.0000,9.8641,0.0120,-0.2136,-1.6479,0.3967,0.0000,0.0000,0.0000,0.0000,0.0000,0.0000,0.0000,0.0000,0.0000,0.0000,0.7622,-0.1587,-0.6174,-0.1122,9.4700,-0.9100,2.3500,0.0000,0.0000,0.0000,0.7593,-0.0198,-0.6485,0.0495,9.5600,-1.0400,1.9600,0.0000,0.0000,0.0000,0.2312,-0.2704,-0.9341,0.0263,4.0600,-1.7000,-8.7400,0.0000,0.0000,0.0000,0.7702,0.1161,-0.6160,0.1165,9.5300,0.2400,2.0300,0.0000,0.0000,0.0000,0.7376,0.0374,-0.6741,0.0039,9.7500,0.4500,0.7900,0.0000,0.0000,0.0000,0.1670,0.2533,-0.1515,0.9407,5.1400,-1.9800,8.1000,0.0000,0.0000,0.0000
9955,0,0,1,1.2964,4.4165,1.4282,4.5483,0.0092,-0.0055,-0.3076,2.0654,0.0072,9.8450,0.0144,-0.2747,-1.8311,0.3967,0.0072,9.8450,0.0144,-0.2747,-1.8311,0.3967,0.0000,0.0000,0.0000,0.0000,0.0000,0.0000,0.0000,0.0000,0.0000,0.0000,0.7622,-0.1587,-0.6174,-0.1122,9.4300,-0.9600,2.3600,0.0000,0.0000,0.0000,0.7593,-0.0198,-0.6485,0.0495,9.5600,-1.0400,1.9600,0.0000,0.0000,0.0000,0.2312,-0.2704,-0.9341,0.0263,4.0600,-1.7000,-8.7300,0.0000,0.0000,0.0000,0.7703,0.1161,-0.6160,0.1165,9.5700,0.2400,2.0200,0.0000,0.0000,0.0000,0.7376,0.0374,-0.6741,0.0038,9.7300,0.4400,0.8000,0.0000,0.0000,0.0000,0.1670,0.2533,-0.1515,0.9407,5.1300,-1.9800,8.0800,0.0000,0.0000,0.0000
9956,0,0,1,1.2964,4.4165,1.4282,4.5483,-0.0311,0.0073,-0.3076,2.0654,-0.0886,9.7971,-0.0215,-0.2747,-1.9226,0.3967,-0.0886,9.7971,-0.0215,-0.2747,-1.9226,0.3967,0.0000,0.0000,0.0000,0.0000,0.0000,0.0000,0.0000,0.0000,0.0000,0.0000,0.7622,-0.1587,-0.6174,-0.1122,9.4600,-0.9400,2.3500,0.0000,0.0000,0.0000,0.7593,-0.0198,-0.6485,0.0495,9.5300,-1.0400,1.9600,0.0000,0.0000,0.0000,0.2312,-0.2704,-0.9341,0.0263,4.0600,-1.7000,-8.7300,0.0000,0.0000,0.0000,0.7703,0.1161,-0.6160,0.1165,9.5800,0.2700,2.0300,0.0000,0.0000,0.0000,0.7376,0.0374,-0.6741,0.0038,9.7300,0.4400,0.8000,0.0000,0.0000,0.0000,0.1670,0.2533,-0.1515,0.9407,5.1300,-1.9600,8.0900,0.0000,0.0000,0.0000
9957,0,0,1,1.2964,4.4165,1.4282,4.5483,0.0110,-0.0146,-0.3076,2.0654,-0.1125,9.7875,-0.0335,-0.3052,-1.8616,0.5493,-0.1125,9.7875,-0.0335,-0.3052,-1.8616,0.5493,0.0000,0.0000,0.0000,0.0000,0.0000,0.0000,0.0000,0.0000,0.0000,0.0000,0.7621,-0.1587,-0.6174,-0.1122,9.4500,-0.9500,2.3400,0.0000,0.0000,0.0000,0.7593,-0.0198,-0.6485,0.0495,9.5500,-1.0300,1.9500,0.0000,0.0000,0.0000,0.2312,-0.2704,-0.9341,0.0263,4.0400,-1.7000,-8.7400,0.0000,0.0000,0.0000,0.7703,0.1161,-0.6160,0.1165,9.5800,0.2700,2.0300,0.0000,0.0000,0.0000,0.7376,0.0374,-0.6741,0.0038,9.7500,0.4600,0.8100,0.0000,0.0000,0.0000,0.1670,0.2533,-0.1515,0.9407,5.1300,-1.9600,8.0900,0.0000,0.0000,0.0000
