LoopCnt,H10Mode,H10AssistLevel,ImuHubConnected,LeftHipAngle,RightHipAngle,LeftThighAngle,RightThighAngle,LeftHipTorque,RightHipTorque,LeftHipMotorAngle,RightHipMotorAngle,LeftHipImuGlobalAccX,LeftHipImuGlobalAccY,LeftHipImuGlobalAccZ,LeftHipImuGlobalGyrX,LeftHipImuGlobalGyrY,LeftHipImuGlobalGyrZ,RightHipImuGlobalAccX,RightHipImuGlobalAccY,RightHipImuGlobalAccZ,RightHipImuGlobalGyrX,RightHipImuGlobalGyrY,RightHipImuGlobalGyrZ,TrunkIMU_LocalAccX,TrunkIMU_LocalAccY,TrunkIMU_LocalAccZ,TrunkIMU_LocalGyrX,TrunkIMU_LocalGyrY,TrunkIMU_LocalGyrZ,TrunkIMU_QuatW,TrunkIMU_QuatX,TrunkIMU_QuatY,TrunkIMU_QuatZ,L_THIGH_IMU_QuatW,L_THIGH_IMU_QuatX,L_THIGH_IMU_QuatY,L_THIGH_IMU_QuatZ,L_THIGH_IMU_AccX,L_THIGH_IMU_AccY,L_THIGH_IMU_AccZ,L_THIGH_IMU_GyrX,L_THIGH_IMU_GyrY,L_THIGH_IMU_GyrZ,L_SHANK_IMU_QuatW,L_SHANK_IMU_QuatX,L_SHANK_IMU_QuatY,L_SHANK_IMU_QuatZ,L_SHANK_IMU_AccX,L_SHANK_IMU_AccY,L_SHANK_IMU_AccZ,L_SHANK_IMU_GyrX,L_SHANK_IMU_GyrY,L_SHANK_IMU_GyrZ,L_FOOT_IMU_QuatW,L_FOOT_IMU_QuatX,L_FOOT_IMU_QuatY,L_FOOT_IMU_QuatZ,L_FOOT_IMU_AccX,L_FOOT_IMU_AccY,L_FOOT_IMU_AccZ,L_FOOT_IMU_GyrX,L_FOOT_IMU_GyrY,L_FOOT_IMU_GyrZ,R_THIGH_IMU_QuatW,R_THIGH_IMU_QuatX,R_THIGH_IMU_QuatY,R_THIGH_IMU_QuatZ,R_THIGH_IMU_AccX,R_THIGH_IMU_AccY,R_THIGH_IMU_AccZ,R_THIGH_IMU_GyrX,R_THIGH_IMU_GyrY,R_THIGH_IMU_GyrZ,R_SHANK_IMU_QuatW,R_SHANK_IMU_QuatX,R_SHANK_IMU_QuatY,R_SHANK_IMU_QuatZ,R_SHANK_IMU_AccX,R_SHANK_IMU_AccY,R_SHANK_IMU_AccZ,R_SHANK_IMU_GyrX,R_SHANK_IMU_GyrY,R_SHANK_IMU_GyrZ,R_FOOT_IMU_QuatW,R_FOOT_IMU_QuatX,R_FOOT_IMU_QuatY,R_FOOT_IMU_QuatZ,R_FOOT_IMU_AccX,R_FOOT_IMU_AccY,R_FOOT_IMU_AccZ,R_FOOT_IMU_GyrX,R_FOOT_IMU_GyrY,R_FOOT_IMU_GyrZ
393051,0,0,1,6.9214,9.7559,3.7793,6.6138,0.0183,-0.0092,5.7788,6.9653,-0.0407,9.8665,0.0958,1.4954,0.8545,0.2136,-0.0407,9.8665,0.0958,1.4954,0.8545,0.2136,9.7766,0.6321,0.4032,0.0021,-0.0070,-0.0002,-0.0448,0.6861,0.0903,0.7205,0.1511,0.5863,-0.1795,0.7753,9.4200,-0.9900,2.4100,0.0000,0.0000,0.0000,0.7240,-0.0696,-0.6830,-0.0655,9.7400,-0.0900,0.5700,0.0000,0.0000,0.0000,0.2145,0.2633,-0.9341,0.1091,4.4900,-0.8600,-8.6600,0.0000,0.0000,0.0000,-0.7306,-0.2756,0.5459,-0.3034,9.4300,0.7100,2.4400,0.0000,0.0000,0.0000,0.6469,0.3300,-0.5804,0.3682,9.7300,-0.0100,1.0800,0.0000,0.0000,0.0000,-0.3961,0.1955,0.0595,0.8951,3.8800,-0.4700,8.9600,0.0000,0.0000,0.0000
393052,0,0,1,6.9214,9.7559,3.7793,6.6138,0.0000,0.0073,5.7788,6.9653,-0.0239,9.8402,0.0192,1.3733,0.7324,0.2747,-0.0239,9.8402,0.0192,1.3733,0.7324,0.2747,9.7766,0.6321,0.4032,0.0021,-0.0070,-0.0002,-0.0448,0.6861,0.0903,0.7205,0.1511,0.5863,-0.1795,0.7753,9.4600,-0.9700,2.4000,0.0000,0.0000,0.0000,0.7240,-0.0696,-0.6830,-0.0655,9.7600,-0.1200,0.5700,0.0000,0.0000,0.0000,0.2145,0.2633,-0.9341,0.1091,4.4800,-0.8800,-8.6600,0.0000,0.0000,0.0000,-0.7306,-0.2757,0.5459,-0.3034,9.4600,0.7100,2.4600,0.0000,0.0000,0.0000,0.6469,0.3300,-0.5804,0.3682,9.7300,-0.0100,1.0800,0.0000,0.0000,0.0000,-0.3961,0.1955,0.0595,0.8951,3.8800,-0.4700,8.9600,0.0000,0.0000,0.0000
393053,0,0,1,6.9214,9.7559,3.7793,6.6138,-0.0275,-0.0220,5.7788,6.9653,0.0287,9.8928,0.0311,1.1902,0.4272,0.2441,0.0287,9.8928,0.0311,1.1902,0.4272,0.2441,9.7633,0.6818,0.4179,0.0036,-0.0057,-0.0007,-0.0448,0.6861,0.0903,0.7205,0.1511,0.5863,-0.1795,0.7753,9.4300,-0.9600,2.4100,0.0000,0.0000,0.0000,0.7240,-0.0696,-0.6830,-0.0655,9.7700,-0.1100,0.5800,0.0000,0.0000,0.0000,0.2145,0.2633,-0.9341,0.1091,4.5000,-0.8800,-8.6500,0.0000,0.0000,0.0000,-0.7306,-0.2757,0.5459,-0.3034,9.4600,0.7100,2.4600,0.0000,0.0000,0.0000,0.6469,0.3300,-0.5804,0.3682,9.7500,-0.0100,1.0800,0.0000,0.0000,0.0000,-0.3961,0.1955,0.0595,0.8951,3.8800,-0.4600,8.9600,0.0000,0.0000,0.0000
393054,0,0,1,6.9214,9.7559,3.7793,6.6138,-0.0055,-0.0110,5.7788,6.9653,-0.0192,9.8450,-0.0144,1.5564,0.7019,0.1831,-0.0192,9.8450,-0.0144,1.5564,0.7019,0.1831,9.7633,0.6818,0.4179,0.0036,-0.0057,-0.0007,-0.0448,0.6861,0.0903,0.7205,0.1511,0.5863,-0.1795,0.7753,9.4300,-0.9800,2.4100,0.0000,0.0000,0.0000,0.7240,-0.0696,-0.6830,-0.0655,9.7700,-0.1100,0.5800,0.0000,0.0000,0.0000,0.2145,0.2633,-0.9341,0.1091,4.5100,-0.8900,-8.6500,0.0000,0.0000,0.0000,-0.7306,-0.2757,0.5459,-0.3034,9.4700,0.7100,2.4600,0.0000,0.0000,0.0000,0.6469,0.3300,-0.5804,0.3682,9.7500,-0.0100,1.0800,0.0000,0.0000,0.0000,-0.3961,0.1955,0.0595,0.8951,3.8700,-0.4700,8.9800,0.0000,0.0000,0.0000
393055,0,0,1,6.9214,9.7559,3.7793,6.6138,0.0055,0.0128,5.7788,6.9653,-0.0120,9.8138,0.0263,1.4954,0.7935,0.3357,-0.0120,9.8138,0.0263,1.4954,0.7935,0.3357,9.7513,0.6344,0.4007,0.0037,-0.0053,0.0015,-0.0448,0.6861,0.0903,0.7205,0.1511,0.5863,-0.1795,0.7753,9.4300,-0.9800,2.4100,0.0000,0.0000,0.0000,0.7240,-0.0696,-0.6830,-0.0655,9.7700,-0.1000,0.5900,0.0000,0.0000,0.0000,0.2145,0.2633,-0.9341,0.1091,4.4900,-0.8700,-8.6500,0.0000,0.0000,0.0000,-0.7306,-0.2757,0.5459,-0.3034,9.4700,0.7100,2.4600,0.0000,0.0000,0.0000,0.6469,0.3300,-0.5804,0.3682,9.7200,-0.0100,1.0900,0.0000,0.0000,0.0000,-0.3961,0.1955,0.0595,0.8951,3.8800,-0.4600,8.9800,0.0000,0.0000,0.0000
393056,0,0,1,6.9214,9.7559,3.7793,6.6138,-0.0073,-0.0018,5.7788,6.9653,-0.0287,9.7827,0.0215,1.4038,0.4578,0.1221,-0.0287,9.7827,0.0215,1.4038,0.4578,0.1221,9.7513,0.6344,0.4007,0.0037,-0.0053,0.0015,-0.0448,0.6861,0.0903,0.7205,0.1511,0.5863,-0.1795,0.7753,9.4400,-0.9600,2.4200,0.0000,0.0000,0.0000,0.7240,-0.0696,-0.6830,-0.0655,9.7800,-0.1100,0.5700,0.0000,0.0000,0.0000,0.2145,0.2633,-0.9341,0.1091,4.4900,-0.8700,-8.6500,0.0000,0.0000,0.0000,-0.7306,-0.2757,0.5459,-0.3034,9.4100,0.7200,2.4300,0.0000,0.0000,0.0000,0.6469,0.3300,-0.5804,0.3682,9.7300,-0.0100,1.0700,0.0000,0.0000,0.0000,-0.3961,0.1955,0.0595,0.8951,3.9000,-0.4600,8.9700,0.0000,0.0000,0.0000
393057,0,0,1,6.9214,9.7559,3.7793,6.6138,0.0165,-0.0220,5.7788,6.9653,-0.0048,9.8737,0.0575,1.6785,0.5798,0.3967,-0.0048,9.8737,0.0575,1.6785,0.5798,0.3967,9.7513,0.6344,0.4007,0.0037,-0.0053,0.0015,-0.0448,0.6861,0.0903,0.7205,0.1511,0.5863,-0.1795,0.7753,9.4400,-0.9400,2.4200,0.0000,0.0000,0.0000,0.7240,-0.0697,-0.6830,-0.0655,9.7900,-0.1100,0.5700,0.0000,0.0000,0.0000,0.2144,0.2633,-0.9341,0.1091,4.4900,-0.9000,-8.6600,0.0000,0.0000,0.0000,-0.7306,-0.2757,0.5459,-0.3034,9.4100,0.7200,2.4300,0.0000,0.0000,0.0000,0.6469,0.3300,-0.5804,0.3682,9.7300,-0.0100,1.0700,0.0000,0.0000,0.0000,-0.3961,0.1955,0.0595,0.8951,3.9000,-0.4600,8.9700,0.0000,0.0000,0.0000
393058,0,0,1,6.9214,9.7559,3.7793,6.6138,-0.0055,0.0238,5.7788,6.9653,0.0000,9.8521,0.0335,1.3733,0.6409,0.2441,0.0000,9.8521,0.0335,1.3733,0.6409,0.2441,9.8142,0.6985,0.4630,0.0027,-0.0065,0.0014,-0.0448,0.6861,0.0903,0.7205,0.1511,0.5863,-0.1795,0.7753,9.4600,-0.9600,2.4200,0.0000,0.0000,0.0000,0.7240,-0.0697,-0.6830,-0.0655,9.7600,-0.1300,0.5600,0.0000,0.0000,0.0000,0.2144,0.2633,-0.9341,0.1091,4.4900,-0.8800,-8.6600,0.0000,0.0000,0.0000,-0.7306,-0.2757,0.5459,-0.3034,9.4100,0.7000,2.4200,0.0000,0.0000,0.0000,0.6469,0.3300,-0.5804,0.3682,9.7500,-0.0300,1.0900,0.0000,0.0000,0.0000,-0.3961,0.1955,0.0595,0.8951,3.8900,-0.4700,8.9700,0.0000,0.0000,0.0000
393059,0,0,1,6.9214,9.7559,3.7793,6.6138,0.0146,0.0000,5.7788,6.9653,-0.0144,9.8282,0.0335,1.3428,0.6714,0.3357,-0.0144,9.8282,0.0335,1.3428,0.6714,0.3357,9.8142,0.6985,0.4630,0.0027,-0.0065,0.0014,-0.0448,0.6861,0.0903,0.7205,0.1511,0.5863,-0.1795,0.7753,9.4400,-0.9400,2.4100,0.0000,0.0000,0.0000,0.7240,-0.0697,-0.6830,-0.0655,9.7600,-0.1300,0.5600,0.0000,0.0000,0.0000,0.2145,0.2633,-0.9341,0.1091,4.5000,-0.8500,-8.6400,0.0000,0.0000,0.0000,-0.7306,-0.2757,0.5459,-0.3034,9.4100,0.7000,2.4300,0.0000,0.0000,0.0000,0.6469,0.3300,-0.5804,0.3682,9.7200,-0.0200,1.0600,0.0000,0.0000,0.0000,-0.3961,0.1955,0.0595,0.8951,3.9100,-0.4900,8.9800,0.0000,0.0000,0.0000
393060,0,0,1,6.9214,9.7559,3.7793,6.6138,0.0073,0.0220,5.7788,6.9653,-0.0239,9.8234,0.0622,1.4954,0.7935,0.3357,-0.0239,9.8234,0.0622,1.4954,0.7935,0.3357,9.8118,0.6513,0.4357,0.0049,-0.0036,-0.0010,-0.0448,0.6861,0.0903,0.7205,0.1511,0.5863,-0.1795,0.7753,9.4400,-0.9400,2.4100,0.0000,0.0000,0.0000,0.7240,-0.0697,-0.6830,-0.0655,9.7800,-0.1300,0.5700,0.0000,0.0000,0.0000,0.2145,0.2633,-0.9341,0.1091,4.4900,-0.8800,-8.6400,0.0000,0.0000,0.0000,-0.7306,-0.2757,0.5459,-0.3034,9.4400,0.7000,2.4200,0.0000,0.0000,0.0000,0.6469,0.3300,-0.5804,0.3682,9.7300,-0.0200,1.0700,0.0000,0.0000,0.0000,-0.3961,0.1955,0.0595,0.8951,3.8800,-0.4600,8.9500,0.0000,0.0000,0.0000
393061,0,0,1,6.9214,9.7559,3.7793,6.6138,0.0092,-0.0165,5.7788,6.9653,0.0072,9.8426,0.0551,1.3428,0.5798,0.1221,0.0072,9.8426,0.0551,1.3428,0.5798,0.1221,9.8118,0.6513,0.4357,0.0049,-0.0036,-0.0010,-0.0448,0.6861,0.0903,0.7205,0.1511,0.5863,-0.1795,0.7753,9.4400,-0.9500,2.4200,0.0000,0.0000,0.0000,0.7240,-0.0696,-0.6830,-0.0655,9.7700,-0.1100,0.5800,0.0000,0.0000,0.0000,0.2145,0.2633,-0.9341,0.1091,4.4900,-0.8800,-8.6400,0.0000,0.0000,0.0000,-0.7306,-0.2757,0.5459,-0.3034,9.4500,0.7100,2.4500,0.0000,0.0000,0.0000,0.6469,0.3300,-0.5804,0.3682,9.7200,-0.0200,1.0600,0.0000,0.0000,0.0000,-0.3961,0.1955,0.0595,0.8951,3.9100,-0.4600,8.9600,0.0000,0.0000,0.0000
393062,0,0,1,6.9214,9.7559,3.7793,6.6138,0.0073,0.0183,5.7788,6.9653,-0.0239,9.8521,0.0239,1.4648,0.5493,0.2747,-0.0239,9.8521,0.0239,1.4648,0.5493,0.2747,9.8118,0.6513,0.4357,0.0049,-0.0036,-0.0010,-0.0448,0.6861,0.0903,0.7205,0.1511,0.5863,-0.1795,0.7753,9.4200,-0.9800,2.4300,0.0000,0.0000,0.0000,0.7240,-0.0697,-0.6830,-0.0655,9.7700,-0.1000,0.5700,0.0000,0.0000,0.0000,0.2145,0.2633,-0.9341,0.1091,4.5000,-0.8800,-8.6600,0.0000,0.0000,0.0000,-0.7306,-0.2757,0.5459,-0.3034,9.4500,0.7100,2.4500,0.0000,0.0000,0.0000,0.6469,0.3300,-0.5804,0.3682,9.7200,-0.0200,1.0600,0.0000,0.0000,0.0000,-0.3961,0.1955,0.0595,0.8951,3.9100,-0.4600,8.9600,0.0000,0.0000,0.0000
393063,0,0,1,6.9214,9.7559,3.7793,6.6138,0.0000,-0.0165,5.7788,6.9653,-0.0311,9.8593,0.0168,1.4038,0.5493,0.3052,-0.0311,9.8593,0.0168,1.4038,0.5493,0.3052,9.8028,0.6529,0.4537,-0.0004,-0.0035,0.0004,-0.0448,0.6861,0.0903,0.7205,0.1511,0.5863,-0.1795,0.7753,9.4200,-0.9600,2.4300,0.0000,0.0000,0.0000,0.7240,-0.0696,-0.6830,-0.0655,9.7600,-0.1100,0.5800,0.0000,0.0000,0.0000,0.2144,0.2633,-0.9341,0.1091,4.4800,-0.8700,-8.6500,0.0000,0.0000,0.0000,-0.7306,-0.2757,0.5459,-0.3034,9.4500,0.7100,2.4500,0.0000,0.0000,0.0000,0.6469,0.3300,-0.5804,0.3682,9.7200,-0.0200,1.0600,0.0000,0.0000,0.0000,-0.3961,0.1955,0.0595,0.8951,3.8800,-0.4700,8.9700,0.0000,0.0000,0.0000
393064,0,0,1,6.9214,9.7559,3.7793,6.6138,0.0165,-0.0110,5.7788,6.9653,-0.0503,9.8617,0.0694,1.5869,0.6714,0.2747,-0.0503,9.8617,0.0694,1.5869,0.6714,0.2747,9.8028,0.6529,0.4537,-0.0004,-0.0035,0.0004,-0.0448,0.6861,0.0903,0.7205,0.1511,0.5863,-0.1795,0.7753,9.4400,-0.9900,2.4200,0.0000,0.0000,0.0000,0.7240,-0.0696,-0.6830,-0.0655,9.7600,-0.1100,0.5800,0.0000,0.0000,0.0000,0.2144,0.2633,-0.9341,0.1091,4.4800,-0.8800,-8.6500,0.0000,0.0000,0.0000,-0.7306,-0.2757,0.5459,-0.3034,9.4300,0.7300,2.4200,0.0000,0.0000,0.0000,0.6469,0.3300,-0.5804,0.3682,9.7300,0.0000,1.0600,0.0000,0.0000,0.0000,-0.3961,0.1955,0.0595,0.8951,3.8800,-0.4600,8.9700,0.0000,0.0000,0.0000
393065,0,0,1,6.9214,9.7559,3.7793,6.6138,-0.0037,-0.0128,5.7788,6.9653,-0.0455,9.8067,0.0335,1.3733,0.6714,0.2441,-0.0455,9.8067,0.0335,1.3733,0.6714,0.2441,9.7853,0.6663,0.4263,0.0010,-0.0110,0.0032,-0.0448,0.6861,0.0903,0.7205,0.1511,0.5863,-0.1795,0.7753,9.4400,-0.9900,2.4200,0.0000,0.0000,0.0000,0.7240,-0.0696,-0.6830,-0.0655,9.7600,-0.1000,0.5800,0.0000,0.0000,0.0000,0.2144,0.2633,-0.9341,0.1091,4.5000,-0.8800,-8.6500,0.0000,0.0000,0.0000,-0.7306,-0.2757,0.5459,-0.3034,9.4000,0.7300,2.4300,0.0000,0.0000,0.0000,0.6469,0.3300,-0.5804,0.3682,9.7300,0.0000,1.0600,0.0000,0.0000,0.0000,-0.3961,0.1955,0.0595,0.8951,3.8900,-0.4600,8.9800,0.0000,0.0000,0.0000
393066,0,0,1,6.9214,9.7559,3.7793,6.6138,0.0000,0.0165,5.7788,6.9653,0.0048,9.8426,0.0455,1.4343,0.6104,0.1221,0.0048,9.8426,0.0455,1.4343,0.6104,0.1221,9.7853,0.6663,0.4263,0.0010,-0.0110,0.0032,-0.0448,0.6861,0.0903,0.7205,0.1511,0.5863,-0.1795,0.7753,9.4300,-0.9700,2.4300,0.0000,0.0000,0.0000,0.7240,-0.0696,-0.6830,-0.0655,9.7700,-0.0800,0.5900,0.0000,0.0000,0.0000,0.2144,0.2633,-0.9341,0.1091,4.5000,-0.8800,-8.6500,0.0000,0.0000,0.0000,-0.7306,-0.2757,0.5459,-0.3034,9.4000,0.7100,2.4400,0.0000,0.0000,0.0000,0.6469,0.3300,-0.5804,0.3682,9.7400,0.0000,1.0700,0.0000,0.0000,0.0000,-0.3961,0.1955,0.0594,0.8951,3.8800,-0.4700,8.9700,0.0000,0.0000,0.0000
393067,0,0,1,6.9214,9.7559,3.7793,6.6138,0.0055,-0.0055,5.7788,6.9653,-0.0479,9.8474,0.0239,1.4954,0.4272,0.1526,-0.0479,9.8474,0.0239,1.4954,0.4272,0.1526,9.7853,0.6663,0.4263,0.0010,-0.0110,0.0032,-0.0448,0.6861,0.0903,0.7205,0.1511,0.5863,-0.1795,0.7753,9.4200,-0.9600,2.4400,0.0000,0.0000,0.0000,0.7240,-0.0696,-0.6830,-0.0655,9.7700,-0.0900,0.5900,0.0000,0.0000,0.0000,0.2144,0.2633,-0.9341,0.1091,4.5000,-0.8600,-8.6500,0.0000,0.0000,0.0000,-0.7306,-0.2757,0.5459,-0.3034,9.4200,0.7100,2.4600,0.0000,0.0000,0.0000,0.6469,0.3300,-0.5804,0.3682,9.7400,0.0000,1.0700,0.0000,0.0000,0.0000,-0.3961,0.1955,0.0594,0.8951,3.8800,-0.4700,8.9700,0.0000,0.0000,0.0000
393068,0,0,1,6.9214,9.7559,3.7793,6.6138,-0.0055,-0.0146,5.7788,6.9653,-0.0383,9.8282,0.0239,1.4038,0.6409,0.1221,-0.0383,9.8282,0.0239,1.4038,0.6409,0.1221,9.7513,0.6475,0.3960,0.0016,-0.0093,0.0006,-0.0448,0.6861,0.0903,0.7205,0.1511,0.5863,-0.1795,0.7753,9.4300,-0.9600,2.4000,0.0000,0.0000,0.0000,0.7240,-0.0696,-0.6830,-0.0655,9.7700,-0.0900,0.5900,0.0000,0.0000,0.0000,0.2144,0.2633,-0.9341,0.1091,4.4800,-0.8600,-8.6600,0.0000,0.0000,0.0000,-0.7306,-0.2757,0.5459,-0.3034,9.4200,0.7100,2.4600,0.0000,0.0000,0.0000,0.6469,0.3300,-0.5804,0.3682,9.7400,0.0000,1.0500,0.0000,0.0000,0.0000,-0.3961,0.1955,0.0594,0.8951,3.8800,-0.4700,8.9700,0.0000,0.0000,0.0000
393069,0,0,1,6.9214,9.7559,3.7793,6.6138,-0.0018,0.0073,5.7788,6.9653,-0.0335,9.8330,0.0527,1.3733,0.6409,0.2441,-0.0335,9.8330,0.0527,1.3733,0.6409,0.2441,9.7513,0.6475,0.3960,0.0016,-0.0093,0.0006,-0.0448,0.6861,0.0903,0.7205,0.1510,0.5863,-0.1794,0.7753,9.4200,-0.9700,2.4100,0.0000,0.0000,0.0000,0.7240,-0.0696,-0.6830,-0.0655,9.7800,-0.1100,0.6000,0.0000,0.0000,0.0000,0.2144,0.2633,-0.9341,0.1091,4.4900,-0.8700,-8.6600,0.0000,0.0000,0.0000,-0.7306,-0.2757,0.5459,-0.3034,9.4100,0.7200,2.4500,0.0000,0.0000,0.0000,0.6469,0.3300,-0.5804,0.3682,9.7100,0.0000,1.0600,0.0000,0.0000,0.0000,-0.3961,0.1955,0.0594,0.8951,3.8800,-0.4700,8.9700,0.0000,0.0000,0.0000
393070,0,0,1,6.9214,9.7559,3.7793,6.6138,-0.0220,0.0092,5.7788,6.9653,-0.0192,9.8689,0.0024,1.5259,0.4272,0.1221,-0.0192,9.8689,0.0024,1.5259,0.4272,0.1221,9.7742,0.6807,0.4217,-0.0008,-0.0065,0.0030,-0.0448,0.6861,0.0903,0.7205,0.1510,0.5863,-0.1794,0.7753,9.4200,-0.9700,2.4100,0.0000,0.0000,0.0000,0.7240,-0.0696,-0.6830,-0.0655,9.7600,-0.0900,0.5900,0.0000,0.0000,0.0000,0.2144,0.2633,-0.9341,0.1091,4.4800,-0.8800,-8.6500,0.0000,0.0000,0.0000,-0.7306,-0.2757,0.5459,-0.3035,9.4400,0.7300,2.4700,0.0000,0.0000,0.0000,0.6469,0.3300,-0.5804,0.3682,9.7200,-0.0100,1.0500,0.0000,0.0000,0.0000,-0.3961,0.1955,0.0595,0.8951,3.8900,-0.4700,8.9700,0.0000,0.0000,0.0000
393071,0,0,1,6.9214,9.7559,3.7793,6.6138,0.0055,-0.0073,5.7788,6.9653,-0.0383,9.8330,0.0120,1.5869,0.4578,-0.1221,-0.0383,9.8330,0.0120,1.5869,0.4578,-0.1221,9.7742,0.6807,0.4217,-0.0008,-0.0065,0.0030,-0.0448,0.6861,0.0903,0.7205,0.1510,0.5863,-0.1794,0.7753,9.4100,-0.9600,2.4000,0.0000,0.0000,0.0000,0.7240,-0.0696,-0.6830,-0.0655,9.7800,-0.1100,0.5700,0.0000,0.0000,0.0000,0.2144,0.2633,-0.9341,0.1091,4.4800,-0.8800,-8.6500,0.0000,0.0000,0.0000,-0.7306,-0.2757,0.5459,-0.3035,9.4200,0.7500,2.4600,0.0000,0.0000,0.0000,0.6469,0.3300,-0.5804,0.3682,9.7200,0.0000,1.0500,0.0000,0.0000,0.0000,-0.3961,0.1955,0.0594,0.8951,3.8700,-0.4700,8.9800,0.0000,0.0000,0.0000
393072,0,0,1,6.9214,9.7559,3.7793,6.6138,-0.0092,-0.0146,5.7788,6.9653,-0.0096,9.8426,0.0192,1.4954,0.6409,0.1221,-0.0096,9.8426,0.0192,1.4954,0.6409,0.1221,9.7742,0.6807,0.4217,-0.0008,-0.0065,0.0030,-0.0448,0.6861,0.0903,0.7205,0.1510,0.5863,-0.1794,0.7753,9.4300,-0.9800,2.4000,0.0000,0.0000,0.0000,0.7240,-0.0696,-0.6830,-0.0655,9.7700,-0.1100,0.5700,0.0000,0.0000,0.0000,0.2144,0.2633,-0.9341,0.1091,4.4700,-0.8600,-8.6400,0.0000,0.0000,0.0000,-0.7306,-0.2757,0.5459,-0.3035,9.4100,0.7300,2.4500,0.0000,0.0000,0.0000,0.6469,0.3299,-0.5804,0.3682,9.7400,0.0000,1.0500,0.0000,0.0000,0.0000,-0.3961,0.1955,0.0595,0.8951,3.8800,-0.4600,8.9600,0.0000,0.0000,0.0000
393073,0,0,1,6.9214,9.7559,3.7793,6.6138,0.0073,-0.0146,5.7788,6.9653,-0.0551,9.7971,0.0335,1.4343,0.5188,0.1526,-0.0551,9.7971,0.0335,1.4343,0.5188,0.1526,9.7697,0.6497,0.4007,0.0003,-0.0063,0.0010,-0.0448,0.6861,0.0903,0.7204,0.1510,0.5863,-0.1794,0.7753,9.4300,-0.9900,2.3900,0.0000,0.0000,0.0000,0.7240,-0.0696,-0.6830,-0.0655,9.7900,-0.1300,0.5700,0.0000,0.0000,0.0000,0.2144,0.2633,-0.9341,0.1091,4.4900,-0.8900,-8.6600,0.0000,0.0000,0.0000,-0.7306,-0.2757,0.5459,-0.3035,9.4100,0.7300,2.4500,0.0000,0.0000,0.0000,0.6469,0.3299,-0.5804,0.3682,9.7400,0.0000,1.0500,0.0000,0.0000,0.0000,-0.3961,0.1955,0.0595,0.8951,3.8800,-0.4600,8.9600,0.0000,0.0000,0.0000
393074,0,0,1,6.9214,9.7559,3.7793,6.6138,-0.0146,0.0073,5.7788,6.9653,-0.0599,9.8713,0.0192,1.4038,0.5798,0.1221,-0.0599,9.8713,0.0192,1.4038,0.5798,0.1221,9.7697,0.6497,0.4007,0.0003,-0.0063,0.0010,-0.0448,0.6861,0.0903,0.7204,0.1510,0.5863,-0.1794,0.7753,9.4400,-0.9800,2.3850,0.0000,0.0000,0.0000,0.7240,-0.0696,-0.6830,-0.0655,9.7900,-0.1300,0.5700,0.0000,0.0000,0.0000,0.2144,0.2633,-0.9342,0.1091,4.4900,-0.8800,-8.6600,0.0000,0.0000,0.0000,-0.7306,-0.2757,0.5459,-0.3035,9.4400,0.7300,2.4600,0.0000,0.0000,0.0000,0.6469,0.3299,-0.5804,0.3682,9.7200,-0.0100,1.0500,0.0000,0.0000,0.0000,-0.3961,0.1955,0.0595,0.8951,3.8800,-0.4800,8.9500,0.0000,0.0000,0.0000
393075,0,0,1,6.9214,9.7559,3.7793,6.6138,0.0092,0.0055,5.7788,6.9653,-0.0335,9.8617,0.0192,1.5869,0.6714,0.0916,-0.0335,9.8617,0.0192,1.5869,0.6714,0.0916,9.8158,0.6775,0.4496,-0.0020,-0.0023,0.0038,-0.0448,0.6862,0.0903,0.7204,0.1510,0.5863,-0.1794,0.7753,9.4500,-0.9700,2.3800,0.0000,0.0000,0.0000,0.7240,-0.0696,-0.6830,-0.0655,9.7600,-0.1200,0.5800,0.0000,0.0000,0.0000,0.2144,0.2633,-0.9342,0.1091,4.4800,-0.8700,-8.6500,0.0000,0.0000,0.0000,-0.7306,-0.2756,0.5459,-0.3035,9.4400,0.7400,2.4600,0.0000,0.0000,0.0000,0.6469,0.3299,-0.5804,0.3682,9.7200,-0.0200,1.0600,0.0000,0.0000,0.0000,-0.3961,0.1955,0.0595,0.8951,3.8800,-0.4800,8.9700,0.0000,0.0000,0.0000
393076,0,0,1,6.9214,9.7559,3.7793,6.6138,0.0256,0.0055,5.7788,6.9653,-0.0263,9.8067,0.0790,1.2817,0.6714,0.1831,-0.0263,9.8067,0.0790,1.2817,0.6714,0.1831,9.8158,0.6775,0.4496,-0.0020,-0.0023,0.0038,-0.0448,0.6862,0.0903,0.7204,0.1510,0.5863,-0.1794,0.7753,9.4400,-0.9900,2.4200,0.0000,0.0000,0.0000,0.7240,-0.0696,-0.6830,-0.0655,9.7500,-0.1100,0.5800,0.0000,0.0000,0.0000,0.2144,0.2633,-0.9342,0.1091,4.4800,-0.8700,-8.6500,0.0000,0.0000,0.0000,-0.7306,-0.2756,0.5459,-0.3034,9.4600,0.7600,2.4700,0.0000,0.0000,0.0000,0.6469,0.3299,-0.5804,0.3682,9.7400,-0.0300,1.0500,0.0000,0.0000,0.0000,-0.3961,0.1955,0.0595,0.8951,3.8800,-0.4800,8.9700,0.0000,0.0000,0.0000
393077,0,0,1,6.9214,9.7559,3.7793,6.6138,0.0018,-0.0183,5.7788,6.9653,-0.0503,9.8474,0.0024,1.3428,0.7324,0.1831,-0.0503,9.8474,0.0024,1.3428,0.7324,0.1831,9.7715,0.6440,0.4209,0.0013,-0.0038,0.0007,-0.0447,0.6862,0.0903,0.7204,0.1510,0.5863,-0.1794,0.7753,9.4300,-0.9800,2.4100,0.0000,0.0000,0.0000,0.7240,-0.0696,-0.6830,-0.0655,9.7600,-0.1200,0.5700,0.0000,0.0000,0.0000,0.2144,0.2633,-0.9342,0.1091,4.4800,-0.8900,-8.6600,0.0000,0.0000,0.0000,-0.7306,-0.2756,0.5459,-0.3034,9.4400,0.7500,2.4700,0.0000,0.0000,0.0000,0.6469,0.3299,-0.5804,0.3682,9.7300,-0.0200,1.0500,0.0000,0.0000,0.0000,-0.3961,0.1955,0.0595,0.8951,3.8800,-0.4800,8.9700,0.0000,0.0000,0.0000
393078,0,0,1,6.9214,9.7559,3.7793,6.6138,0.0128,-0.0220,5.7788,6.9653,0.0072,9.8186,0.0120,1.4343,0.7629,0.1831,0.0072,9.8186,0.0120,1.4343,0.7629,0.1831,9.7715,0.6440,0.4209,0.0013,-0.0038,0.0007,-0.0447,0.6862,0.0903,0.7204,0.1510,0.5863,-0.1794,0.7753,9.4500,-0.9700,2.3900,0.0000,0.0000,0.0000,0.7240,-0.0696,-0.6830,-0.0655,9.7700,-0.1000,0.5600,0.0000,0.0000,0.0000,0.2144,0.2633,-0.9342,0.1091,4.4800,-0.8700,-8.6700,0.0000,0.0000,0.0000,-0.7306,-0.2756,0.5459,-0.3034,9.4400,0.7500,2.4700,0.0000,0.0000,0.0000,0.6469,0.3299,-0.5804,0.3682,9.7300,-0.0200,1.0500,0.0000,0.0000,0.0000,-0.3961,0.1955,0.0594,0.8951,3.8800,-0.4700,8.9600,0.0000,0.0000,0.0000
393079,0,0,1,6.9214,9.7559,3.7793,6.6138,0.0128,0.0220,5.7788,6.9653,-0.0311,9.8521,0.0622,1.2512,0.7324,0.2136,-0.0311,9.8521,0.0622,1.2512,0.7324,0.2136,9.7715,0.6440,0.4209,0.0013,-0.0038,0.0007,-0.0447,0.6862,0.0903,0.7204,0.1510,0.5863,-0.1794,0.7753,9.4500,-0.9700,2.3900,0.0000,0.0000,0.0000,0.7240,-0.0696,-0.6830,-0.0655,9.7700,-0.1000,0.5600,0.0000,0.0000,0.0000,0.2144,0.2633,-0.9342,0.1091,4.4800,-0.8800,-8.6600,0.0000,0.0000,0.0000,-0.7306,-0.2756,0.5459,-0.3034,9.4400,0.7500,2.4700,0.0000,0.0000,0.0000,0.6469,0.3299,-0.5804,0.3682,9.7100,0.0100,1.0400,0.0000,0.0000,0.0000,-0.3961,0.1955,0.0595,0.8951,3.8800,-0.4500,8.9600,0.0000,0.0000,0.0000
393080,0,0,1,6.9214,9.7559,3.7793,6.6138,0.0092,-0.0220,5.7788,6.9653,-0.0622,9.8067,0.0527,1.1902,0.6104,0.0305,-0.0622,9.8067,0.0527,1.1902,0.6104,0.0305,9.7631,0.6649,0.4357,0.0023,-0.0054,0.0052,-0.0447,0.6862,0.0902,0.7204,0.1510,0.5863,-0.1794,0.7753,9.4100,-0.9800,2.4000,0.0000,0.0000,0.0000,0.7240,-0.0696,-0.6831,-0.0655,9.7800,-0.1300,0.5700,0.0000,0.0000,0.0000,0.2144,0.2633,-0.9342,0.1091,4.4800,-0.8700,-8.6600,0.0000,0.0000,0.0000,-0.7306,-0.2756,0.5459,-0.3034,9.4400,0.7600,2.4500,0.0000,0.0000,0.0000,0.6469,0.3299,-0.5804,0.3682,9.7500,-0.0100,1.0700,0.0000,0.0000,0.0000,-0.3961,0.1954,0.0595,0.8951,3.8900,-0.4600,8.9700,0.0000,0.0000,0.0000
393081,0,0,1,6.9214,9.7559,3.7793,6.6138,-0.0146,0.0146,5.7788,6.9653,0.0311,9.8234,0.0479,1.5259,0.6409,0.0610,0.0311,9.8234,0.0479,1.5259,0.6409,0.0610,9.7631,0.6649,0.4357,0.0023,-0.0054,0.0052,-0.0447,0.6862,0.0902,0.7204,0.1510,0.5863,-0.1794,0.7753,9.4400,-0.9700,2.4000,0.0000,0.0000,0.0000,0.7240,-0.0696,-0.6831,-0.0655,9.7800,-0.1200,0.5500,0.0000,0.0000,0.0000,0.2144,0.2633,-0.9342,0.1091,4.4800,-0.8700,-8.6600,0.0000,0.0000,0.0000,-0.7306,-0.2756,0.5459,-0.3034,9.4200,0.7600,2.4600,0.0000,0.0000,0.0000,0.6469,0.3299,-0.5804,0.3682,9.7400,-0.0100,1.0500,0.0000,0.0000,0.0000,-0.3961,0.1954,0.0595,0.8951,3.8900,-0.4800,8.9600,0.0000,0.0000,0.0000
393082,0,0,1,6.9214,9.7559,3.7793,6.6138,0.0183,-0.0146,5.7788,6.9653,-0.0120,9.8474,0.0766,1.4343,0.6104,0.1221,-0.0120,9.8474,0.0766,1.4343,0.6104,0.1221,9.7998,0.6437,0.4172,0.0015,-0.0093,0.0027,-0.0447,0.6862,0.0902,0.7204,0.1510,0.5863,-0.1794,0.7753,9.4200,-0.9800,2.4000,0.0000,0.0000,0.0000,0.7240,-0.0696,-0.6831,-0.0655,9.7600,-0.1200,0.5700,0.0000,0.0000,0.0000,0.2144,0.2633,-0.9342,0.1091,4.4700,-0.8900,-8.6500,0.0000,0.0000,0.0000,-0.7306,-0.2756,0.5459,-0.3034,9.4200,0.7400,2.4600,0.0000,0.0000,0.0000,0.6469,0.3299,-0.5804,0.3682,9.7450,-0.0100,1.0550,0.0000,0.0000,0.0000,-0.3961,0.1954,0.0595,0.8951,3.8900,-0.4800,8.9600,0.0000,0.0000,0.0000
393083,0,0,1,6.9434,9.7778,3.7793,6.6138,0.0128,0.0220,5.7788,6.9653,0.0000,9.8138,0.0599,1.6174,0.4578,0.0000,0.0000,9.8138,0.0599,1.6174,0.4578,0.0000,9.7998,0.6437,0.4172,0.0015,-0.0093,0.0027,-0.0447,0.6862,0.0902,0.7204,0.1510,0.5863,-0.1793,0.7753,9.4600,-1.0100,2.4100,0.0000,0.0000,0.0000,0.7240,-0.0696,-0.6831,-0.0655,9.7600,-0.1200,0.5700,0.0000,0.0000,0.0000,0.2144,0.2633,-0.9342,0.1091,4.4800,-0.8700,-8.6600,0.0000,0.0000,0.0000,-0.7306,-0.2756,0.5459,-0.3034,9.4200,0.7400,2.4600,0.0000,0.0000,0.0000,0.6469,0.3299,-0.5804,0.3682,9.7500,-0.0100,1.0600,0.0000,0.0000,0.0000,-0.3961,0.1954,0.0595,0.8951,3.9000,-0.4700,8.9700,0.0000,0.0000,0.0000
393084,0,0,1,6.9434,9.7778,3.7793,6.6138,0.0183,-0.0092,5.7788,6.9653,-0.0144,9.8378,0.0239,1.2817,0.6714,0.0305,-0.0144,9.8378,0.0239,1.2817,0.6714,0.0305,9.7998,0.6437,0.4172,0.0015,-0.0093,0.0027,-0.0447,0.6862,0.0902,0.7204,0.1510,0.5863,-0.1793,0.7753,9.4300,-1.0000,2.4200,0.0000,0.0000,0.0000,0.7240,-0.0696,-0.6831,-0.0655,9.7500,-0.1200,0.5800,0.0000,0.0000,0.0000,0.2144,0.2633,-0.9342,0.1091,4.4800,-0.8700,-8.6600,0.0000,0.0000,0.0000,-0.7306,-0.2756,0.5459,-0.3034,9.4400,0.7400,2.4500,0.0000,0.0000,0.0000,0.6469,0.3299,-0.5804,0.3682,9.7300,-0.0100,1.0600,0.0000,0.0000,0.0000,-0.3961,0.1954,0.0595,0.8951,3.8900,-0.4700,8.9700,0.0000,0.0000,0.0000
393085,0,0,1,6.9214,9.7778,3.7573,6.6138,-0.0037,-0.0146,5.7788,6.9653,-0.0335,9.8234,0.0622,1.3123,0.7629,0.0000,-0.0335,9.8234,0.0622,1.3123,0.7629,0.0000,9.7404,0.7025,0.4157,-0.0005,-0.0043,0.0046,-0.0447,0.6862,0.0902,0.7204,0.1510,0.5863,-0.1793,0.7753,9.4100,-0.9800,2.4100,0.0000,0.0000,0.0000,0.7240,-0.0696,-0.6831,-0.0655,9.7600,-0.1200,0.5700,0.0000,0.0000,0.0000,0.2144,0.2633,-0.9342,0.1091,4.5000,-0.8800,-8.6500,0.0000,0.0000,0.0000,-0.7307,-0.2756,0.5459,-0.3034,9.4800,0.7400,2.4400,0.0000,0.0000,0.0000,0.6469,0.3299,-0.5804,0.3682,9.7100,-0.0300,1.0600,0.0000,0.0000,0.0000,-0.3961,0.1954,0.0595,0.8951,3.8900,-0.4600,8.9700,0.0000,0.0000,0.0000
393086,0,0,1,6.9214,9.7778,3.7573,6.6138,-0.0055,-0.0073,5.7788,6.9653,0.0000,9.8569,0.0383,1.2817,0.6104,0.3052,0.0000,9.8569,0.0383,1.2817,0.6104,0.3052,9.7404,0.7025,0.4157,-0.0005,-0.0043,0.0046,-0.0447,0.6862,0.0902,0.7204,0.1510,0.5863,-0.1793,0.7753,9.4100,-0.9800,2.4100,0.0000,0.0000,0.0000,0.7240,-0.0696,-0.6831,-0.0655,9.7600,-0.1200,0.5600,0.0000,0.0000,0.0000,0.2144,0.2633,-0.9342,0.1091,4.5000,-0.8800,-8.6500,0.0000,0.0000,0.0000,-0.7307,-0.2756,0.5459,-0.3034,9.4500,0.7400,2.4600,0.0000,0.0000,0.0000,0.6469,0.3299,-0.5804,0.3681,9.7400,-0.0100,1.0600,0.0000,0.0000,0.0000,-0.3961,0.1954,0.0594,0.8951,3.8800,-0.4700,8.9800,0.0000,0.0000,0.0000
393087,0,0,1,6.9214,9.7778,3.7573,6.6138,-0.0146,-0.0165,5.7788,6.9653,0.0263,9.8497,0.0886,1.4648,0.7324,0.1831,0.0263,9.8497,0.0886,1.4648,0.7324,0.1831,9.7321,0.6641,0.3932,0.0037,-0.0056,0.0020,-0.0447,0.6862,0.0902,0.7204,0.1510,0.5863,-0.1793,0.7753,9.4400,-1.0000,2.3800,0.0000,0.0000,0.0000,0.7240,-0.0696,-0.6831,-0.0655,9.7600,-0.1100,0.5600,0.0000,0.0000,0.0000,0.2144,0.2633,-0.9342,0.1091,4.4900,-0.8800,-8.6500,0.0000,0.0000,0.0000,-0.7307,-0.2756,0.5459,-0.3034,9.4500,0.7400,2.4600,0.0000,0.0000,0.0000,0.6469,0.3299,-0.5804,0.3681,9.7400,-0.0100,1.0600,0.0000,0.0000,0.0000,-0.3961,0.1954,0.0595,0.8951,3.8900,-0.4500,8.9700,0.0000,0.0000,0.0000
393088,0,0,1,6.9214,9.7778,3.7573,6.6138,-0.0165,0.0165,5.7788,6.9653,-0.0072,9.8258,0.0622,1.4038,0.7019,0.3357,-0.0072,9.8258,0.0622,1.4038,0.7019,0.3357,9.7321,0.6641,0.3932,0.0037,-0.0056,0.0020,-0.0447,0.6862,0.0902,0.7204,0.1510,0.5863,-0.1793,0.7753,9.4400,-0.9900,2.4000,0.0000,0.0000,0.0000,0.7240,-0.0696,-0.6831,-0.0655,9.7600,-0.1100,0.5600,0.0000,0.0000,0.0000,0.2144,0.2633,-0.9342,0.1091,4.4900,-0.8700,-8.6600,0.0000,0.0000,0.0000,-0.7307,-0.2756,0.5459,-0.3034,9.4500,0.7400,2.4600,0.0000,0.0000,0.0000,0.6469,0.3299,-0.5804,0.3681,9.7500,-0.0100,1.0400,0.0000,0.0000,0.0000,-0.3961,0.1954,0.0595,0.8951,3.8900,-0.4500,8.9700,0.0000,0.0000,0.0000
393089,0,0,1,6.9214,9.7778,3.7573,6.6138,-0.0055,0.0000,5.7788,6.9653,-0.0599,9.8019,0.0551,1.4954,0.6714,0.0916,-0.0599,9.8019,0.0551,1.4954,0.6714,0.0916,9.7321,0.6641,0.3932,0.0037,-0.0056,0.0020,-0.0447,0.6862,0.0902,0.7204,0.1509,0.5863,-0.1793,0.7753,9.4400,-1.0000,2.4000,0.0000,0.0000,0.0000,0.7240,-0.0696,-0.6831,-0.0655,9.7800,-0.1000,0.5800,0.0000,0.0000,0.0000,0.2144,0.2633,-0.9342,0.1091,4.5000,-0.8700,-8.6500,0.0000,0.0000,0.0000,-0.7307,-0.2756,0.5459,-0.3034,9.4100,0.7400,2.4200,0.0000,0.0000,0.0000,0.6469,0.3299,-0.5804,0.3681,9.7400,0.0000,1.0700,0.0000,0.0000,0.0000,-0.3961,0.1954,0.0595,0.8951,3.8900,-0.4600,8.9700,0.0000,0.0000,0.0000
393090,0,0,1,6.9214,9.7778,3.7573,6.6138,0.0037,0.0183,5.7788,6.9653,0.0000,9.8330,0.0311,1.2512,0.4578,0.2747,0.0000,9.8330,0.0311,1.2512,0.4578,0.2747,9.7389,0.6538,0.4242,-0.0006,-0.0050,0.0031,-0.0447,0.6862,0.0902,0.7204,0.1509,0.5863,-0.1793,0.7753,9.4400,-1.0000,2.3900,0.0000,0.0000,0.0000,0.7240,-0.0696,-0.6831,-0.0655,9.7600,-0.0900,0.5600,0.0000,0.0000,0.0000,0.2144,0.2633,-0.9342,0.1091,4.4700,-0.8800,-8.6500,0.0000,0.0000,0.0000,-0.7307,-0.2755,0.5459,-0.3034,9.4200,0.7300,2.4300,0.0000,0.0000,0.0000,0.6469,0.3299,-0.5804,0.3681,9.7300,-0.0100,1.0700,0.0000,0.0000,0.0000,-0.3961,0.1954,0.0594,0.8951,3.8800,-0.4400,8.9700,0.0000,0.0000,0.0000
393091,0,0,1,6.9214,9.7778,3.7573,6.6138,0.0165,0.0073,5.7788,6.9653,-0.0024,9.8665,0.0168,1.4343,0.5493,0.2136,-0.0024,9.8665,0.0168,1.4343,0.5493,0.2136,9.7389,0.6538,0.4242,-0.0006,-0.0050,0.0031,-0.0447,0.6862,0.0902,0.7204,0.1509,0.5863,-0.1793,0.7753,9.4400,-1.0000,2.3900,0.0000,0.0000,0.0000,0.7240,-0.0696,-0.6831,-0.0655,9.7700,-0.1100,0.5400,0.0000,0.0000,0.0000,0.2144,0.2633,-0.9342,0.1091,4.4700,-0.8800,-8.6500,0.0000,0.0000,0.0000,-0.7307,-0.2755,0.5459,-0.3034,9.4500,0.7300,2.4500,0.0000,0.0000,0.0000,0.6469,0.3299,-0.5804,0.3682,9.7400,-0.0100,1.0400,0.0000,0.0000,0.0000,-0.3961,0.1954,0.0594,0.8951,3.8800,-0.4600,8.9700,0.0000,0.0000,0.0000
393092,0,0,1,6.9214,9.7778,3.7573,6.6138,-0.0092,-0.0128,5.7788,6.9653,-0.0383,9.8521,0.0263,1.6174,0.5493,0.0916,-0.0383,9.8521,0.0263,1.6174,0.5493,0.0916,9.7389,0.6538,0.4242,-0.0006,-0.0050,0.0031,-0.0447,0.6862,0.0902,0.7204,0.1509,0.5863,-0.1793,0.7753,9.4400,-1.0000,2.3800,0.0000,0.0000,0.0000,0.7240,-0.0696,-0.6831,-0.0655,9.7700,-0.0900,0.5600,0.0000,0.0000,0.0000,0.2144,0.2633,-0.9342,0.1091,4.4900,-0.8600,-8.6600,0.0000,0.0000,0.0000,-0.7307,-0.2755,0.5459,-0.3034,9.4500,0.7300,2.4500,0.0000,0.0000,0.0000,0.6469,0.3299,-0.5804,0.3682,9.7400,-0.0100,1.0400,0.0000,0.0000,0.0000,-0.3961,0.1954,0.0594,0.8951,3.8900,-0.4600,8.9700,0.0000,0.0000,0.0000
393093,0,0,1,6.9214,9.7778,3.7573,6.6138,0.0110,0.0220,5.7788,6.9653,0.0072,9.8593,0.0599,1.3733,0.5493,0.3662,0.0072,9.8593,0.0599,1.3733,0.5493,0.3662,9.7507,0.6932,0.4181,0.0015,-0.0087,0.0032,-0.0447,0.6862,0.0902,0.7204,0.1509,0.5863,-0.1793,0.7753,9.4700,-1.0200,2.3800,0.0000,0.0000,0.0000,0.7240,-0.0696,-0.6831,-0.0655,9.7500,-0.0800,0.5400,0.0000,0.0000,0.0000,0.2144,0.2633,-0.9342,0.1091,4.4700,-0.8700,-8.6700,0.0000,0.0000,0.0000,-0.7307,-0.2755,0.5459,-0.3034,9.4500,0.7400,2.4800,0.0000,0.0000,0.0000,0.6469,0.3299,-0.5804,0.3682,9.7400,-0.0100,1.0600,0.0000,0.0000,0.0000,-0.3961,0.1954,0.0594,0.8951,3.8900,-0.4600,8.9700,0.0000,0.0000,0.0000
393094,0,0,1,6.9214,9.7778,3.7573,6.6138,-0.0165,0.0183,5.7788,6.9653,0.0072,9.8569,0.0790,1.4954,0.7019,0.0000,0.0072,9.8569,0.0790,1.4954,0.7019,0.0000,9.7507,0.6932,0.4181,0.0015,-0.0087,0.0032,-0.0447,0.6862,0.0902,0.7204,0.1509,0.5863,-0.1793,0.7753,9.4700,-1.0000,2.3800,0.0000,0.0000,0.0000,0.7240,-0.0696,-0.6831,-0.0655,9.7500,-0.0800,0.5400,0.0000,0.0000,0.0000,0.2144,0.2633,-0.9342,0.1091,4.4900,-0.8800,-8.6500,0.0000,0.0000,0.0000,-0.7307,-0.2755,0.5459,-0.3034,9.4300,0.7300,2.4900,0.0000,0.0000,0.0000,0.6469,0.3299,-0.5804,0.3682,9.7400,-0.0100,1.0500,0.0000,0.0000,0.0000,-0.3961,0.1954,0.0594,0.8951,3.8900,-0.4600,8.9800,0.0000,0.0000,0.0000
393095,0,0,1,6.9214,9.7778,3.7573,6.6138,-0.0092,-0.0220,5.7788,6.9653,0.0048,9.8450,0.0192,1.4343,0.5493,0.1831,0.0048,9.8450,0.0192,1.4343,0.5493,0.1831,9.7898,0.6074,0.4133,0.0025,-0.0051,0.0036,-0.0447,0.6862,0.0902,0.7204,0.1509,0.5863,-0.1793,0.7753,9.4600,-1.0100,2.3600,0.0000,0.0000,0.0000,0.7240,-0.0696,-0.6831,-0.0655,9.7700,-0.0900,0.5500,0.0000,0.0000,0.0000,0.2144,0.2633,-0.9342,0.1091,4.4800,-0.8800,-8.6600,0.0000,0.0000,0.0000,-0.7307,-0.2755,0.5459,-0.3034,9.4100,0.7300,2.4800,0.0000,0.0000,0.0000,0.6469,0.3299,-0.5804,0.3682,9.7600,-0.0300,1.0500,0.0000,0.0000,0.0000,-0.3961,0.1954,0.0595,0.8951,3.8900,-0.4700,8.9800,0.0000,0.0000,0.0000
393096,0,0,1,6.9214,9.7778,3.7573,6.6138,0.0220,0.0037,5.7788,6.9653,-0.0215,9.7923,0.0120,1.3733,0.6409,0.3052,-0.0215,9.7923,0.0120,1.3733,0.6409,0.3052,9.7898,0.6074,0.4133,0.0025,-0.0051,0.0036,-0.0447,0.6862,0.0902,0.7204,0.1509,0.5863,-0.1793,0.7753,9.4600,-1.0100,2.3600,0.0000,0.0000,0.0000,0.7240,-0.0696,-0.6831,-0.0655,9.7800,-0.0900,0.5500,0.0000,0.0000,0.0000,0.2144,0.2633,-0.9342,0.1091,4.4800,-0.8800,-8.6600,0.0000,0.0000,0.0000,-0.7307,-0.2755,0.5459,-0.3034,9.4100,0.7400,2.4700,0.0000,0.0000,0.0000,0.6469,0.3299,-0.5804,0.3682,9.7400,-0.0200,1.0300,0.0000,0.0000,0.0000,-0.3961,0.1954,0.0594,0.8951,3.8800,-0.4800,8.9600,0.0000,0.0000,0.0000
393097,0,0,1,6.9214,9.7778,3.7573,6.6138,0.0110,0.0165,5.7788,6.9653,0.0000,9.8234,0.0599,1.4343,0.6714,0.0610,0.0000,9.8234,0.0599,1.4343,0.6714,0.0610,9.7898,0.6074,0.4133,0.0025,-0.0051,0.0036,-0.0447,0.6862,0.0902,0.7204,0.1509,0.5863,-0.1793,0.7753,9.4600,-1.0000,2.3800,0.0000,0.0000,0.0000,0.7240,-0.0696,-0.6831,-0.0655,9.7600,-0.0900,0.5600,0.0000,0.0000,0.0000,0.2144,0.2633,-0.9342,0.1091,4.5000,-0.8800,-8.6500,0.0000,0.0000,0.0000,-0.7307,-0.2755,0.5459,-0.3034,9.4100,0.7400,2.4700,0.0000,0.0000,0.0000,0.6469,0.3299,-0.5804,0.3682,9.7400,-0.0200,1.0300,0.0000,0.0000,0.0000,-0.3961,0.1954,0.0594,0.8951,3.8800,-0.4800,8.9800,0.0000,0.0000,0.0000
393098,0,0,1,6.9214,9.7778,3.7573,6.6138,0.0073,-0.0110,5.7788,6.9653,-0.0144,9.8019,0.0335,1.5259,0.6104,-0.0610,-0.0144,9.8019,0.0335,1.5259,0.6104,-0.0610,9.7692,0.6859,0.4174,0.0033,-0.0043,0.0041,-0.0447,0.6862,0.0902,0.7204,0.1509,0.5863,-0.1793,0.7753,9.4500,-0.9900,2.3900,0.0000,0.0000,0.0000,0.7240,-0.0696,-0.6831,-0.0655,9.7500,-0.0900,0.5500,0.0000,0.0000,0.0000,0.2144,0.2633,-0.9342,0.1091,4.4900,-0.8800,-8.6500,0.0000,0.0000,0.0000,-0.7307,-0.2755,0.5459,-0.3034,9.4300,0.7400,2.4800,0.0000,0.0000,0.0000,0.6469,0.3299,-0.5804,0.3682,9.7400,-0.0200,1.0300,0.0000,0.0000,0.0000,-0.3961,0.1954,0.0594,0.8951,3.8800,-0.4800,8.9800,0.0000,0.0000,0.0000
393099,0,0,1,6.9214,9.7778,3.7573,6.6138,-0.0165,0.0238,5.7788,6.9653,-0.0024,9.8593,0.0455,1.4038,0.5188,0.3052,-0.0024,9.8593,0.0455,1.4038,0.5188,0.3052,9.7692,0.6859,0.4174,0.0033,-0.0043,0.0041,-0.0447,0.6862,0.0902,0.7204,0.1509,0.5863,-0.1793,0.7753,9.4500,-1.0200,2.3700,0.0000,0.0000,0.0000,0.7240,-0.0696,-0.6831,-0.0655,9.7500,-0.0900,0.5500,0.0000,0.0000,0.0000,0.2144,0.2633,-0.9342,0.1091,4.4900,-0.8800,-8.6600,0.0000,0.0000,0.0000,-0.7307,-0.2755,0.5459,-0.3034,9.4500,0.7300,2.4700,0.0000,0.0000,0.0000,0.6469,0.3299,-0.5804,0.3682,9.7400,0.0000,1.0300,0.0000,0.0000,0.0000,-0.3961,0.1954,0.0594,0.8951,3.8800,-0.4700,8.9700,0.0000,0.0000,0.0000
393100,0,0,1,6.9214,9.7778,3.7573,6.6138,0.0128,-0.0238,5.7788,6.9653,0.0000,9.8210,0.0455,1.5869,0.5188,0.2136,0.0000,9.8210,0.0455,1.5869,0.5188,0.2136,9.7524,0.6279,0.3779,0.0021,-0.0065,0.0025,-0.0447,0.6862,0.0902,0.7204,0.1509,0.5863,-0.1793,0.7753,9.4500,-1.0200,2.3700,0.0000,0.0000,0.0000,0.7240,-0.0696,-0.6831,-0.0655,9.7500,-0.1000,0.5700,0.0000,0.0000,0.0000,0.2144,0.2633,-0.9342,0.1091,4.4900,-0.8600,-8.6600,0.0000,0.0000,0.0000,-0.7307,-0.2756,0.5459,-0.3034,9.4500,0.7100,2.4500,0.0000,0.0000,0.0000,0.6469,0.3299,-0.5804,0.3682,9.7400,0.0000,1.0300,0.0000,0.0000,0.0000,-0.3961,0.1954,0.0594,0.8951,3.9000,-0.4700,8.9700,0.0000,0.0000,0.0000
393101,0,0,1,6.9214,9.7778,3.7573,6.6138,0.0073,0.0201,5.7788,6.9653,-0.0263,9.8210,0.0287,1.4648,0.6409,0.3052,-0.0263,9.8210,0.0287,1.4648,0.6409,0.3052,9.7524,0.6279,0.3779,0.0021,-0.0065,0.0025,-0.0447,0.6862,0.0902,0.7204,0.1509,0.5863,-0.1793,0.7753,9.4500,-1.0200,2.3800,0.0000,0.0000,0.0000,0.7240,-0.0696,-0.6831,-0.0655,9.7600,-0.1100,0.5500,0.0000,0.0000,0.0000,0.2144,0.2633,-0.9342,0.1091,4.4900,-0.8600,-8.6600,0.0000,0.0000,0.0000,-0.7307,-0.2756,0.5459,-0.3034,9.4400,0.7100,2.4400,0.0000,0.0000,0.0000,0.6469,0.3299,-0.5804,0.3682,9.7600,0.0000,1.0500,0.0000,0.0000,0.0000,-0.3961,0.1954,0.0594,0.8951,3.9000,-0.4700,8.9600,0.0000,0.0000,0.0000
393102,0,0,1,6.9214,9.7778,3.7573,6.6138,-0.0073,-0.0238,5.7788,6.9653,0.0120,9.8521,0.0622,1.5869,0.7019,0.1221,0.0120,9.8521,0.0622,1.5869,0.7019,0.1221,9.7524,0.6279,0.3779,0.0021,-0.0065,0.0025,-0.0447,0.6862,0.0902,0.7204,0.1509,0.5863,-0.1793,0.7753,9.4600,-1.0100,2.3600,0.0000,0.0000,0.0000,0.7240,-0.0696,-0.6831,-0.0655,9.7700,-0.1000,0.5500,0.0000,0.0000,0.0000,0.2144,0.2633,-0.9342,0.1091,4.4900,-0.8600,-8.6500,0.0000,0.0000,0.0000,-0.7307,-0.2755,0.5458,-0.3034,9.4300,0.7100,2.4100,0.0000,0.0000,0.0000,0.6469,0.3299,-0.5804,0.3682,9.7200,0.0000,1.0400,0.0000,0.0000,0.0000,-0.3961,0.1954,0.0594,0.8951,3.9000,-0.4700,8.9600,0.0000,0.0000,0.0000
393103,0,0,1,6.9214,9.7778,3.7573,6.6138,0.0165,-0.0165,5.7788,6.9653,-0.0048,9.8641,0.0407,1.2207,0.6714,0.1526,-0.0048,9.8641,0.0407,1.2207,0.6714,0.1526,9.8004,0.6660,0.4224,0.0008,-0.0051,0.0035,-0.0447,0.6862,0.0902,0.7204,0.1509,0.5863,-0.1793,0.7753,9.4600,-1.0200,2.3600,0.0000,0.0000,0.0000,0.7240,-0.0696,-0.6831,-0.0655,9.7700,-0.1100,0.5600,0.0000,0.0000,0.0000,0.2144,0.2633,-0.9342,0.1091,4.5000,-0.8700,-8.6600,0.0000,0.0000,0.0000,-0.7307,-0.2755,0.5458,-0.3034,9.4300,0.7100,2.4100,0.0000,0.0000,0.0000,0.6469,0.3299,-0.5804,0.3682,9.7200,0.0000,1.0400,0.0000,0.0000,0.0000,-0.3961,0.1954,0.0594,0.8951,3.8800,-0.4800,8.9800,0.0000,0.0000,0.0000
393104,0,0,1,6.9214,9.7778,3.7573,6.6138,0.0000,-0.0110,5.7788,6.9653,-0.0239,9.8545,0.0215,1.5869,0.4883,0.0610,-0.0239,9.8545,0.0215,1.5869,0.4883,0.0610,9.8004,0.6660,0.4224,0.0008,-0.0051,0.0035,-0.0447,0.6862,0.0902,0.7204,0.1509,0.5863,-0.1793,0.7753,9.4500,-1.0200,2.3800,0.0000,0.0000,0.0000,0.7240,-0.0696,-0.6831,-0.0655,9.7700,-0.1100,0.5600,0.0000,0.0000,0.0000,0.2144,0.2633,-0.9342,0.1091,4.4900,-0.8500,-8.6600,0.0000,0.0000,0.0000,-0.7307,-0.2755,0.5458,-0.3034,9.4400,0.7100,2.4400,0.0000,0.0000,0.0000,0.6469,0.3299,-0.5804,0.3682,9.7300,-0.0100,1.0500,0.0000,0.0000,0.0000,-0.3961,0.1954,0.0594,0.8951,3.8800,-0.4600,8.9700,0.0000,0.0000,0.0000
393105,0,0,1,6.9214,9.7778,3.7573,6.6138,0.0000,-0.0183,5.7788,6.9653,-0.0096,9.8234,0.0168,1.4038,0.5798,-0.0610,-0.0096,9.8234,0.0168,1.4038,0.5798,-0.0610,9.7705,0.6998,0.4270,-0.0008,-0.0087,0.0048,-0.0447,0.6862,0.0902,0.7204,0.1509,0.5863,-0.1793,0.7753,9.4500,-1.0200,2.3800,0.0000,0.0000,0.0000,0.7240,-0.0696,-0.6831,-0.0655,9.7700,-0.1200,0.5500,0.0000,0.0000,0.0000,0.2144,0.2633,-0.9342,0.1091,4.4900,-0.8900,-8.6700,0.0000,0.0000,0.0000,-0.7307,-0.2756,0.5458,-0.3034,9.4700,0.7300,2.4300,0.0000,0.0000,0.0000,0.6469,0.3299,-0.5804,0.3682,9.7300,-0.0100,1.0700,0.0000,0.0000,0.0000,-0.3961,0.1954,0.0594,0.8951,3.8900,-0.4500,8.9600,0.0000,0.0000,0.0000
393106,0,0,1,6.9214,9.7778,3.7573,6.6138,0.0220,-0.0055,5.7788,6.9653,0.0287,9.9072,0.0527,1.3428,0.6714,0.2136,0.0287,9.9072,0.0527,1.3428,0.6714,0.2136,9.7705,0.6998,0.4270,-0.0008,-0.0087,0.0048,-0.0447,0.6862,0.0902,0.7204,0.1509,0.5863,-0.1793,0.7753,9.4500,-1.0100,2.3700,0.0000,0.0000,0.0000,0.7240,-0.0696,-0.6831,-0.0655,9.7800,-0.1200,0.5700,0.0000,0.0000,0.0000,0.2144,0.2633,-0.9342,0.1091,4.4900,-0.8900,-8.6700,0.0000,0.0000,0.0000,-0.7307,-0.2756,0.5458,-0.3034,9.4600,0.7300,2.4200,0.0000,0.0000,0.0000,0.6469,0.3299,-0.5804,0.3682,9.7600,-0.0200,1.0400,0.0000,0.0000,0.0000,-0.3961,0.1954,0.0594,0.8951,3.8900,-0.4500,8.9700,0.0000,0.0000,0.0000
393107,0,0,1,6.9214,9.7778,3.7573,6.6138,-0.0183,0.0073,5.7788,6.9653,-0.0192,9.8450,0.0192,1.2817,0.6409,0.3662,-0.0192,9.8450,0.0192,1.2817,0.6409,0.3662,9.7705,0.6998,0.4270,-0.0008,-0.0087,0.0048,-0.0447,0.6862,0.0902,0.7204,0.1509,0.5863,-0.1793,0.7753,9.4200,-1.0100,2.3900,0.0000,0.0000,0.0000,0.7240,-0.0696,-0.6831,-0.0655,9.7500,-0.1300,0.5500,0.0000,0.0000,0.0000,0.2144,0.2633,-0.9342,0.1091,4.4900,-0.8800,-8.6600,0.0000,0.0000,0.0000,-0.7307,-0.2756,0.5458,-0.3034,9.4500,0.7100,2.4200,0.0000,0.0000,0.0000,0.6469,0.3299,-0.5804,0.3682,9.7500,-0.0400,1.0400,0.0000,0.0000,0.0000,-0.3961,0.1954,0.0594,0.8951,3.8900,-0.4500,8.9700,0.0000,0.0000,0.0000
393108,0,0,1,6.9214,9.7778,3.7573,6.6138,-0.0055,-0.0275,5.7788,6.9653,-0.0215,9.8019,0.0622,1.4954,0.6714,0.0916,-0.0215,9.8019,0.0622,1.4954,0.6714,0.0916,9.7710,0.6212,0.3991,0.0001,-0.0034,0.0032,-0.0447,0.6863,0.0901,0.7204,0.1509,0.5863,-0.1793,0.7753,9.4500,-1.0100,2.3800,0.0000,0.0000,0.0000,0.7240,-0.0696,-0.6831,-0.0655,9.7500,-0.1300,0.5500,0.0000,0.0000,0.0000,0.2144,0.2633,-0.9342,0.1091,4.4900,-0.8700,-8.6700,0.0000,0.0000,0.0000,-0.7307,-0.2756,0.5458,-0.3034,9.4500,0.7100,2.4200,0.0000,0.0000,0.0000,0.6469,0.3299,-0.5804,0.3682,9.7500,-0.0400,1.0400,0.0000,0.0000,0.0000,-0.3961,0.1954,0.0594,0.8951,3.8800,-0.4700,8.9700,0.0000,0.0000,0.0000
393109,0,0,1,6.9214,9.7778,3.7573,6.6138,-0.0037,-0.0055,5.7788,6.9653,-0.0335,9.8330,0.0551,1.2512,0.6104,0.1221,-0.0335,9.8330,0.0551,1.2512,0.6104,0.1221,9.7710,0.6212,0.3991,0.0001,-0.0034,0.0032,-0.0447,0.6863,0.0901,0.7204,0.1509,0.5863,-0.1793,0.7753,9.4400,-1.0000,2.3900,0.0000,0.0000,0.0000,0.7240,-0.0696,-0.6831,-0.0655,9.7300,-0.1200,0.5600,0.0000,0.0000,0.0000,0.2144,0.2633,-0.9342,0.1091,4.4800,-0.8700,-8.6500,0.0000,0.0000,0.0000,-0.7307,-0.2756,0.5458,-0.3034,9.4700,0.6900,2.4300,0.0000,0.0000,0.0000,0.6469,0.3299,-0.5804,0.3682,9.7500,-0.0100,1.0500,0.0000,0.0000,0.0000,-0.3961,0.1954,0.0594,0.8951,3.8800,-0.4700,8.9700,0.0000,0.0000,0.0000
393110,0,0,1,6.9214,9.7778,3.7573,6.6138,0.0092,-0.0128,5.7788,6.9653,-0.0024,9.8450,0.0383,1.4038,0.6714,0.2136,-0.0024,9.8450,0.0383,1.4038,0.6714,0.2136,9.7547,0.7091,0.4180,0.0009,-0.0089,0.0046,-0.0447,0.6863,0.0901,0.7204,0.1509,0.5863,-0.1793,0.7753,9.4400,-1.0000,2.3900,0.0000,0.0000,0.0000,0.7240,-0.0697,-0.6831,-0.0655,9.7600,-0.1200,0.5700,0.0000,0.0000,0.0000,0.2144,0.2633,-0.9342,0.1091,4.5000,-0.8900,-8.6500,0.0000,0.0000,0.0000,-0.7307,-0.2756,0.5458,-0.3034,9.4700,0.7300,2.4600,0.0000,0.0000,0.0000,0.6469,0.3299,-0.5804,0.3682,9.7400,-0.0200,1.0400,0.0000,0.0000,0.0000,-0.3961,0.1954,0.0594,0.8951,3.8900,-0.4800,8.9700,0.0000,0.0000,0.0000
393111,0,0,1,6.9214,9.7778,3.7573,6.6138,0.0092,-0.0055,5.7788,6.9653,-0.0144,9.8402,0.0790,1.3123,0.5798,0.0610,-0.0144,9.8402,0.0790,1.3123,0.5798,0.0610,9.7547,0.7091,0.4180,0.0009,-0.0089,0.0046,-0.0447,0.6863,0.0901,0.7204,0.1509,0.5863,-0.1793,0.7753,9.4300,-0.9800,2.3800,0.0000,0.0000,0.0000,0.7240,-0.0697,-0.6831,-0.0655,9.7600,-0.1100,0.5500,0.0000,0.0000,0.0000,0.2144,0.2633,-0.9342,0.1091,4.5000,-0.8900,-8.6500,0.0000,0.0000,0.0000,-0.7307,-0.2756,0.5458,-0.3034,9.4700,0.7300,2.4600,0.0000,0.0000,0.0000,0.6469,0.3299,-0.5804,0.3682,9.7400,-0.0400,1.0400,0.0000,0.0000,0.0000,-0.3961,0.1954,0.0594,0.8951,3.8800,-0.4700,8.9800,0.0000,0.0000,0.0000
393112,0,0,1,6.9214,9.7778,3.7573,6.6138,-0.0073,0.0000,5.7788,6.9653,0.0168,9.8330,0.0239,1.4343,0.7019,0.1221,0.0168,9.8330,0.0239,1.4343,0.7019,0.1221,9.7547,0.7091,0.4180,0.0009,-0.0089,0.0046,-0.0447,0.6863,0.0901,0.7204,0.1509,0.5863,-0.1793,0.7753,9.4500,-0.9900,2.3800,0.0000,0.0000,0.0000,0.7240,-0.0697,-0.6830,-0.0655,9.7800,-0.1200,0.5700,0.0000,0.0000,0.0000,0.2144,0.2633,-0.9342,0.1091,4.4800,-0.8700,-8.6500,0.0000,0.0000,0.0000,-0.7307,-0.2756,0.5458,-0.3034,9.4400,0.7200,2.4600,0.0000,0.0000,0.0000,0.6469,0.3299,-0.5804,0.3682,9.7400,-0.0600,1.0600,0.0000,0.0000,0.0000,-0.3961,0.1954,0.0594,0.8951,3.8800,-0.4700,8.9900,0.0000,0.0000,0.0000
393113,0,0,1,6.9214,9.7778,3.7573,6.6138,-0.0128,-0.0073,5.7788,6.9653,-0.0287,9.8450,0.0694,1.4038,0.6409,0.2136,-0.0287,9.8450,0.0694,1.4038,0.6409,0.2136,9.7462,0.6096,0.3555,0.0039,-0.0050,0.0026,-0.0447,0.6863,0.0901,0.7204,0.1509,0.5863,-0.1793,0.7753,9.4400,-1.0000,2.3900,0.0000,0.0000,0.0000,0.7240,-0.0697,-0.6830,-0.0655,9.7600,-0.1100,0.5700,0.0000,0.0000,0.0000,0.2144,0.2633,-0.9342,0.1091,4.4800,-0.8700,-8.6500,0.0000,0.0000,0.0000,-0.7307,-0.2756,0.5458,-0.3034,9.4400,0.7200,2.4600,0.0000,0.0000,0.0000,0.6469,0.3299,-0.5804,0.3682,9.7400,-0.0600,1.0600,0.0000,0.0000,0.0000,-0.3961,0.1954,0.0594,0.8951,3.8800,-0.4700,8.9900,0.0000,0.0000,0.0000
393114,0,0,1,6.9214,9.7778,3.7573,6.6138,-0.0110,-0.0293,5.7788,6.9653,-0.0168,9.8497,0.0239,1.4648,0.5798,0.1831,-0.0168,9.8497,0.0239,1.4648,0.5798,0.1831,9.7462,0.6096,0.3555,0.0039,-0.0050,0.0026,-0.0447,0.6863,0.0901,0.7204,0.1509,0.5863,-0.1793,0.7753,9.4500,-0.9900,2.3900,0.0000,0.0000,0.0000,0.7240,-0.0697,-0.6830,-0.0655,9.7600,-0.1100,0.5700,0.0000,0.0000,0.0000,0.2144,0.2633,-0.9342,0.1091,4.4800,-0.8700,-8.6400,0.0000,0.0000,0.0000,-0.7307,-0.2756,0.5458,-0.3034,9.4000,0.6900,2.4300,0.0000,0.0000,0.0000,0.6469,0.3299,-0.5804,0.3682,9.7300,-0.0500,1.0500,0.0000,0.0000,0.0000,-0.3961,0.1954,0.0594,0.8951,3.8700,-0.4500,8.9700,0.0000,0.0000,0.0000
393115,0,0,1,6.9214,9.7778,3.7573,6.6138,0.0146,0.0000,5.7788,6.9653,-0.0024,9.8282,0.0335,1.4648,0.7019,0.0916,-0.0024,9.8282,0.0335,1.4648,0.7019,0.0916,9.7637,0.6422,0.3862,-0.0001,-0.0005,0.0054,-0.0447,0.6863,0.0901,0.7204,0.1509,0.5863,-0.1793,0.7753,9.4500,-0.9900,2.3900,0.0000,0.0000,0.0000,0.7240,-0.0697,-0.6830,-0.0655,9.7800,-0.1200,0.5700,0.0000,0.0000,0.0000,0.2144,0.2633,-0.9342,0.1091,4.4900,-0.8700,-8.6600,0.0000,0.0000,0.0000,-0.7307,-0.2756,0.5458,-0.3034,9.4400,0.6800,2.4300,0.0000,0.0000,0.0000,0.6469,0.3299,-0.5804,0.3682,9.7300,-0.0400,1.0500,0.0000,0.0000,0.0000,-0.3961,0.1954,0.0594,0.8951,3.8900,-0.4600,8.9700,0.0000,0.0000,0.0000
393116,0,0,1,6.9214,9.7778,3.7573,6.6138,-0.0201,-0.0110,5.7788,6.9653,-0.0239,9.8426,0.0287,1.3733,0.6104,0.0916,-0.0239,9.8426,0.0287,1.3733,0.6104,0.0916,9.7637,0.6422,0.3862,-0.0001,-0.0005,0.0054,-0.0447,0.6863,0.0901,0.7204,0.1509,0.5863,-0.1793,0.7753,9.4500,-0.9800,2.4100,0.0000,0.0000,0.0000,0.7240,-0.0697,-0.6830,-0.0655,9.7600,-0.1100,0.5700,0.0000,0.0000,0.0000,0.2144,0.2633,-0.9342,0.1091,4.4900,-0.8700,-8.6600,0.0000,0.0000,0.0000,-0.7307,-0.2756,0.5458,-0.3034,9.4700,0.6800,2.4400,0.0000,0.0000,0.0000,0.6469,0.3299,-0.5804,0.3682,9.7200,-0.0300,1.0700,0.0000,0.0000,0.0000,-0.3961,0.1954,0.0594,0.8951,3.8700,-0.4600,8.9700,0.0000,0.0000,0.0000
393117,0,0,1,6.9214,9.7778,3.7573,6.6138,0.0110,0.0165,5.7788,6.9653,-0.0599,9.8689,0.0934,1.4954,0.7019,0.1221,-0.0599,9.8689,0.0934,1.4954,0.7019,0.1221,9.7637,0.6422,0.3862,-0.0001,-0.0005,0.0054,-0.0447,0.6863,0.0901,0.7204,0.1509,0.5863,-0.1793,0.7753,9.4400,-0.9700,2.4000,0.0000,0.0000,0.0000,0.7240,-0.0697,-0.6830,-0.0655,9.7700,-0.1200,0.5700,0.0000,0.0000,0.0000,0.2144,0.2633,-0.9342,0.1091,4.4900,-0.8800,-8.6600,0.0000,0.0000,0.0000,-0.7307,-0.2756,0.5458,-0.3034,9.4800,0.6900,2.4700,0.0000,0.0000,0.0000,0.6469,0.3299,-0.5804,0.3682,9.7200,-0.0300,1.0700,0.0000,0.0000,0.0000,-0.3961,0.1954,0.0594,0.8951,3.8900,-0.4700,8.9800,0.0000,0.0000,0.0000
393118,0,0,1,6.9214,9.7778,3.7573,6.6138,-0.0055,-0.0110,5.7788,6.9653,-0.0622,9.8593,0.0790,1.4343,0.6714,0.0000,-0.0622,9.8593,0.0790,1.4343,0.6714,0.0000,9.7878,0.6691,0.4562,-0.0035,0.0016,0.0015,-0.0447,0.6863,0.0901,0.7204,0.1509,0.5863,-0.1793,0.7754,9.4300,-0.9800,2.4100,0.0000,0.0000,0.0000,0.7240,-0.0697,-0.6830,-0.0655,9.7700,-0.1200,0.5700,0.0000,0.0000,0.0000,0.2144,0.2633,-0.9342,0.1091,4.4900,-0.8900,-8.6600,0.0000,0.0000,0.0000,-0.7307,-0.2756,0.5458,-0.3034,9.4800,0.6900,2.4700,0.0000,0.0000,0.0000,0.6469,0.3299,-0.5804,0.3682,9.7400,-0.0300,1.0600,0.0000,0.0000,0.0000,-0.3961,0.1954,0.0594,0.8951,3.8900,-0.4700,8.9800,0.0000,0.0000,0.0000
393119,0,0,1,6.9214,9.7778,3.7573,6.6138,-0.0110,0.0128,5.7788,6.9653,-0.0192,9.8641,0.0383,1.5259,0.7629,0.0305,-0.0192,9.8641,0.0383,1.5259,0.7629,0.0305,9.7878,0.6691,0.4562,-0.0035,0.0016,0.0015,-0.0447,0.6863,0.0901,0.7204,0.1509,0.5863,-0.1793,0.7754,9.4200,-0.9800,2.4100,0.0000,0.0000,0.0000,0.7240,-0.0697,-0.6830,-0.0655,9.7700,-0.1200,0.5700,0.0000,0.0000,0.0000,0.2144,0.2633,-0.9342,0.1091,4.5000,-0.8600,-8.6400,0.0000,0.0000,0.0000,-0.7307,-0.2756,0.5458,-0.3034,9.4400,0.7200,2.4500,0.0000,0.0000,0.0000,0.6470,0.3299,-0.5804,0.3682,9.7500,-0.0100,1.0500,0.0000,0.0000,0.0000,-0.3961,0.1954,0.0594,0.8951,3.8900,-0.4700,8.9800,0.0000,0.0000,0.0000
393120,0,0,1,6.9214,9.7778,3.7573,6.6138,0.0146,0.0165,5.7788,6.9653,-0.0575,9.8402,0.0479,1.3428,0.4272,0.0916,-0.0575,9.8402,0.0479,1.3428,0.4272,0.0916,9.7730,0.6661,0.4434,0.0014,0.0008,0.0030,-0.0447,0.6863,0.0901,0.7204,0.1509,0.5863,-0.1793,0.7754,9.4200,-0.9800,2.4100,0.0000,0.0000,0.0000,0.7240,-0.0697,-0.6830,-0.0655,9.7500,-0.1000,0.5700,0.0000,0.0000,0.0000,0.2144,0.2633,-0.9342,0.1091,4.5000,-0.8700,-8.6400,0.0000,0.0000,0.0000,-0.7307,-0.2756,0.5458,-0.3034,9.4400,0.7200,2.4500,0.0000,0.0000,0.0000,0.6470,0.3299,-0.5804,0.3682,9.7300,-0.0100,1.0500,0.0000,0.0000,0.0000,-0.3961,0.1954,0.0595,0.8951,3.8700,-0.4600,8.9700,0.0000,0.0000,0.0000
393121,0,0,1,6.9214,9.7778,3.7573,6.6138,0.0000,-0.0092,5.7788,6.9653,-0.0814,9.8162,0.0575,1.3733,0.7935,0.0000,-0.0814,9.8162,0.0575,1.3733,0.7935,0.0000,9.7730,0.6661,0.4434,0.0014,0.0008,0.0030,-0.0447,0.6863,0.0901,0.7204,0.1509,0.5863,-0.1793,0.7754,9.4200,-0.9900,2.4200,0.0000,0.0000,0.0000,0.7240,-0.0697,-0.6830,-0.0655,9.7700,-0.1200,0.5600,0.0000,0.0000,0.0000,0.2144,0.2633,-0.9342,0.1091,4.5000,-0.8700,-8.6400,0.0000,0.0000,0.0000,-0.7307,-0.2756,0.5458,-0.3035,9.4200,0.7200,2.4300,0.0000,0.0000,0.0000,0.6470,0.3299,-0.5804,0.3682,9.7100,0.0000,1.0600,0.0000,0.0000,0.0000,-0.3961,0.1954,0.0595,0.8951,3.9000,-0.4700,8.9600,0.0000,0.0000,0.0000
393122,0,0,1,6.9214,9.7778,3.7573,6.6138,-0.0183,0.0146,5.7788,6.9653,-0.0287,9.8354,0.0503,1.4648,0.5798,-0.0305,-0.0287,9.8354,0.0503,1.4648,0.5798,-0.0305,9.7560,0.7011,0.4502,-0.0007,-0.0026,0.0002,-0.0447,0.6863,0.0901,0.7204,0.1509,0.5863,-0.1793,0.7754,9.4200,-0.9700,2.4400,0.0000,0.0000,0.0000,0.7240,-0.0697,-0.6830,-0.0655,9.7500,-0.1200,0.5700,0.0000,0.0000,0.0000,0.2144,0.2633,-0.9342,0.1091,4.5000,-0.8700,-8.6400,0.0000,0.0000,0.0000,-0.7307,-0.2756,0.5458,-0.3035,9.4200,0.7200,2.4300,0.0000,0.0000,0.0000,0.6470,0.3299,-0.5804,0.3682,9.7100,0.0000,1.0600,0.0000,0.0000,0.0000,-0.3961,0.1954,0.0594,0.8951,3.8700,-0.4800,8.9900,0.0000,0.0000,0.0000
393123,0,0,1,6.9214,9.7778,3.7573,6.6138,-0.0073,-0.0073,5.7788,6.9653,-0.0622,9.8545,0.0455,1.4343,0.5493,0.1526,-0.0622,9.8545,0.0455,1.4343,0.5493,0.1526,9.7560,0.7011,0.4502,-0.0007,-0.0026,0.0002,-0.0447,0.6863,0.0901,0.7204,0.1509,0.5863,-0.1793,0.7754,9.4100,-0.9800,2.4300,0.0000,0.0000,0.0000,0.7240,-0.0697,-0.6830,-0.0655,9.7500,-0.1200,0.5700,0.0000,0.0000,0.0000,0.2144,0.2633,-0.9342,0.1091,4.4800,-0.8600,-8.6600,0.0000,0.0000,0.0000,-0.7307,-0.2756,0.5458,-0.3035,9.4300,0.7000,2.4100,0.0000,0.0000,0.0000,0.6470,0.3299,-0.5804,0.3682,9.7300,-0.0200,1.0500,0.0000,0.0000,0.0000,-0.3961,0.1954,0.0594,0.8951,3.8700,-0.4800,8.9900,0.0000,0.0000,0.0000
393124,0,0,1,6.9214,9.7778,3.7573,6.6138,-0.0092,-0.0092,5.7788,6.9653,-0.0455,9.8210,0.0287,1.2207,0.7629,0.1526,-0.0455,9.8210,0.0287,1.2207,0.7629,0.1526,9.7560,0.7011,0.4502,-0.0007,-0.0026,0.0002,-0.0447,0.6863,0.0901,0.7204,0.1509,0.5863,-0.1792,0.7754,9.4000,-0.9900,2.4200,0.0000,0.0000,0.0000,0.7240,-0.0697,-0.6830,-0.0655,9.7500,-0.1200,0.5800,0.0000,0.0000,0.0000,0.2144,0.2633,-0.9342,0.1091,4.4900,-0.8600,-8.6700,0.0000,0.0000,0.0000,-0.7307,-0.2756,0.5458,-0.3035,9.4400,0.6900,2.4300,0.0000,0.0000,0.0000,0.6470,0.3299,-0.5804,0.3682,9.7200,-0.0200,1.0400,0.0000,0.0000,0.0000,-0.3961,0.1954,0.0594,0.8951,3.8800,-0.4800,8.9500,0.0000,0.0000,0.0000
393125,0,0,1,6.9214,9.7778,3.7573,6.6138,0.0128,-0.0128,5.7788,6.9653,-0.0431,9.8019,0.0431,1.6174,0.6409,-0.0916,-0.0431,9.8019,0.0431,1.6174,0.6409,-0.0916,9.7431,0.6904,0.4392,0.0015,-0.0032,0.0015,-0.0446,0.6863,0.0901,0.7204,0.1509,0.5863,-0.1792,0.7754,9.4000,-0.9900,2.4200,0.0000,0.0000,0.0000,0.7240,-0.0697,-0.6830,-0.0655,9.7600,-0.1200,0.5600,0.0000,0.0000,0.0000,0.2144,0.2633,-0.9342,0.1091,4.4900,-0.8900,-8.6500,0.0000,0.0000,0.0000,-0.7307,-0.2756,0.5458,-0.3035,9.4400,0.7100,2.4400,0.0000,0.0000,0.0000,0.6470,0.3299,-0.5804,0.3682,9.7300,-0.0200,1.0400,0.0000,0.0000,0.0000,-0.3961,0.1954,0.0594,0.8951,3.8900,-0.4600,8.9500,0.0000,0.0000,0.0000
393126,0,0,1,6.9214,9.7778,3.7573,6.6138,-0.0092,0.0092,5.7788,6.9653,0.0287,9.8330,0.0958,1.2817,0.6714,0.3052,0.0287,9.8330,0.0958,1.2817,0.6714,0.3052,9.7431,0.6904,0.4392,0.0015,-0.0032,0.0015,-0.0446,0.6863,0.0901,0.7204,0.1508,0.5863,-0.1792,0.7754,9.4200,-0.9900,2.4300,0.0000,0.0000,0.0000,0.7240,-0.0697,-0.6830,-0.0655,9.7600,-0.1200,0.5700,0.0000,0.0000,0.0000,0.2144,0.2633,-0.9342,0.1091,4.4900,-0.8900,-8.6500,0.0000,0.0000,0.0000,-0.7307,-0.2756,0.5458,-0.3035,9.4300,0.7300,2.4200,0.0000,0.0000,0.0000,0.6470,0.3299,-0.5804,0.3682,9.7400,-0.0100,1.0300,0.0000,0.0000,0.0000,-0.3961,0.1954,0.0594,0.8951,3.8800,-0.4600,8.9700,0.0000,0.0000,0.0000
393127,0,0,1,6.9214,9.7778,3.7573,6.6138,0.0165,-0.0073,5.7788,6.9653,-0.0168,9.8234,0.0622,1.2817,0.5798,0.0000,-0.0168,9.8234,0.0622,1.2817,0.5798,0.0000,9.7659,0.6730,0.3887,-0.0023,-0.0063,0.0013,-0.0446,0.6863,0.0901,0.7204,0.1508,0.5863,-0.1792,0.7754,9.4200,-0.9900,2.4100,0.0000,0.0000,0.0000,0.7240,-0.0697,-0.6830,-0.0655,9.7600,-0.1300,0.5500,0.0000,0.0000,0.0000,0.2144,0.2633,-0.9342,0.1092,4.4900,-0.8800,-8.6500,0.0000,0.0000,0.0000,-0.7307,-0.2756,0.5458,-0.3035,9.4300,0.7300,2.4200,0.0000,0.0000,0.0000,0.6470,0.3299,-0.5804,0.3682,9.7400,-0.0100,1.0300,0.0000,0.0000,0.0000,-0.3961,0.1954,0.0594,0.8951,3.8800,-0.4600,8.9700,0.0000,0.0000,0.0000
393128,0,0,1,6.9214,9.7778,3.7573,6.6138,0.0055,-0.0183,5.7788,6.9653,0.0000,9.7971,0.0838,1.4648,0.7935,-0.0305,0.0000,9.7971,0.0838,1.4648,0.7935,-0.0305,9.7659,0.6730,0.3887,-0.0023,-0.0063,0.0013,-0.0446,0.6863,0.0901,0.7204,0.1508,0.5863,-0.1792,0.7754,9.4200,-0.9800,2.4100,0.0000,0.0000,0.0000,0.7240,-0.0697,-0.6830,-0.0655,9.7600,-0.1300,0.5500,0.0000,0.0000,0.0000,0.2144,0.2633,-0.9342,0.1091,4.4900,-0.8800,-8.6500,0.0000,0.0000,0.0000,-0.7307,-0.2756,0.5458,-0.3035,9.4200,0.7300,2.4400,0.0000,0.0000,0.0000,0.6470,0.3299,-0.5804,0.3682,9.7400,-0.0100,1.0300,0.0000,0.0000,0.0000,-0.3961,0.1954,0.0594,0.8951,3.8800,-0.4600,8.9600,0.0000,0.0000,0.0000
393129,0,0,1,6.9214,9.7778,3.7573,6.6138,-0.0018,-0.0165,5.7788,6.9653,0.0000,9.8186,0.0694,1.2817,0.7019,0.1221,0.0000,9.8186,0.0694,1.2817,0.7019,0.1221,9.7659,0.6730,0.3887,-0.0023,-0.0063,0.0013,-0.0446,0.6863,0.0901,0.7204,0.1508,0.5863,-0.1792,0.7754,9.4400,-1.0000,2.4200,0.0000,0.0000,0.0000,0.7240,-0.0697,-0.6830,-0.0655,9.7700,-0.1300,0.5500,0.0000,0.0000,0.0000,0.2144,0.2633,-0.9342,0.1091,4.4800,-0.8700,-8.6600,0.0000,0.0000,0.0000,-0.7307,-0.2756,0.5458,-0.3035,9.4300,0.7300,2.4400,0.0000,0.0000,0.0000,0.6470,0.3299,-0.5804,0.3682,9.7600,0.0100,1.0300,0.0000,0.0000,0.0000,-0.3961,0.1954,0.0594,0.8951,3.8700,-0.4800,8.9600,0.0000,0.0000,0.0000
393130,0,0,1,6.9214,9.7778,3.7573,6.6138,0.0183,0.0073,5.7788,6.9653,0.0096,9.8282,0.1006,1.1597,0.6104,0.1526,0.0096,9.8282,0.1006,1.1597,0.6104,0.1526,9.7627,0.6811,0.3874,-0.0038,-0.0037,-0.0002,-0.0446,0.6863,0.0901,0.7204,0.1508,0.5863,-0.1792,0.7754,9.4400,-1.0000,2.4200,0.0000,0.0000,0.0000,0.7240,-0.0697,-0.6830,-0.0654,9.7500,-0.1000,0.5700,0.0000,0.0000,0.0000,0.2144,0.2633,-0.9342,0.1091,4.4800,-0.8700,-8.6400,0.0000,0.0000,0.0000,-0.7307,-0.2756,0.5458,-0.3035,9.4400,0.7400,2.4800,0.0000,0.0000,0.0000,0.6470,0.3299,-0.5804,0.3682,9.7300,-0.0100,1.0400,0.0000,0.0000,0.0000,-0.3961,0.1954,0.0594,0.8951,3.8800,-0.4700,8.9800,0.0000,0.0000,0.0000
393131,0,0,1,6.9214,9.7778,3.7573,6.6138,0.0037,-0.0110,5.7788,6.9653,-0.0311,9.8019,0.0479,1.4648,0.6104,0.1831,-0.0311,9.8019,0.0479,1.4648,0.6104,0.1831,9.7627,0.6811,0.3874,-0.0038,-0.0037,-0.0002,-0.0446,0.6863,0.0901,0.7204,0.1508,0.5863,-0.1792,0.7754,9.4300,-0.9900,2.4000,0.0000,0.0000,0.0000,0.7240,-0.0697,-0.6830,-0.0654,9.7500,-0.1000,0.5500,0.0000,0.0000,0.0000,0.2144,0.2633,-0.9342,0.1091,4.4800,-0.8700,-8.6400,0.0000,0.0000,0.0000,-0.7307,-0.2756,0.5458,-0.3035,9.4500,0.7400,2.4900,0.0000,0.0000,0.0000,0.6470,0.3299,-0.5804,0.3682,9.7500,-0.0200,1.0200,0.0000,0.0000,0.0000,-0.3961,0.1954,0.0594,0.8951,3.8900,-0.4700,8.9600,0.0000,0.0000,0.0000
393132,0,0,1,6.9214,9.7778,3.7573,6.6138,-0.0128,-0.0256,5.7788,6.9653,-0.0527,9.8378,0.0814,1.5564,0.7324,0.0000,-0.0527,9.8378,0.0814,1.5564,0.7324,0.0000,9.7624,0.6907,0.4022,-0.0055,-0.0070,0.0013,-0.0446,0.6863,0.0900,0.7204,0.1508,0.5863,-0.1792,0.7754,9.4300,-1.0100,2.4100,0.0000,0.0000,0.0000,0.7240,-0.0697,-0.6830,-0.0654,9.7600,-0.1100,0.5500,0.0000,0.0000,0.0000,0.2144,0.2633,-0.9342,0.1091,4.4900,-0.8800,-8.6400,0.0000,0.0000,0.0000,-0.7307,-0.2756,0.5458,-0.3035,9.4600,0.7200,2.4800,0.0000,0.0000,0.0000,0.6470,0.3299,-0.5804,0.3682,9.7400,-0.0500,1.0000,0.0000,0.0000,0.0000,-0.3961,0.1954,0.0594,0.8951,3.8900,-0.4700,8.9600,0.0000,0.0000,0.0000
393133,0,0,1,6.9214,9.7778,3.7573,6.6138,0.0146,0.0165,5.7788,6.9653,0.0000,9.8378,0.0694,1.4343,0.6409,-0.0305,0.0000,9.8378,0.0694,1.4343,0.6409,-0.0305,9.7624,0.6907,0.4022,-0.0055,-0.0070,0.0013,-0.0446,0.6863,0.0900,0.7204,0.1508,0.5863,-0.1792,0.7754,9.4600,-1.0100,2.3900,0.0000,0.0000,0.0000,0.7240,-0.0697,-0.6830,-0.0654,9.7600,-0.1200,0.5600,0.0000,0.0000,0.0000,0.2144,0.2633,-0.9342,0.1091,4.4900,-0.8900,-8.6600,0.0000,0.0000,0.0000,-0.7307,-0.2756,0.5458,-0.3035,9.4600,0.7200,2.4800,0.0000,0.0000,0.0000,0.6470,0.3299,-0.5804,0.3682,9.7400,-0.0500,1.0000,0.0000,0.0000,0.0000,-0.3961,0.1954,0.0595,0.8951,3.8700,-0.4700,8.9700,0.0000,0.0000,0.0000
393134,0,0,1,6.9214,9.7778,3.7573,6.6138,0.0055,0.0055,5.7788,6.9653,-0.0287,9.8210,0.1053,1.4343,0.5798,0.3357,-0.0287,9.8210,0.1053,1.4343,0.5798,0.3357,9.7624,0.6907,0.4022,-0.0055,-0.0070,0.0013,-0.0446,0.6863,0.0900,0.7204,0.1508,0.5863,-0.1792,0.7754,9.4450,-1.0000,2.3950,0.0000,0.0000,0.0000,0.7240,-0.0697,-0.6830,-0.0654,9.7600,-0.1200,0.5600,0.0000,0.0000,0.0000,0.2144,0.2633,-0.9342,0.1091,4.5000,-0.8700,-8.6500,0.0000,0.0000,0.0000,-0.7307,-0.2756,0.5458,-0.3035,9.4500,0.7600,2.4900,0.0000,0.0000,0.0000,0.6470,0.3299,-0.5804,0.3682,9.7300,-0.0600,1.0100,0.0000,0.0000,0.0000,-0.3961,0.1954,0.0595,0.8951,3.8800,-0.4600,8.9700,0.0000,0.0000,0.0000
393135,0,0,1,6.9214,9.7778,3.7573,6.6138,0.0055,0.0092,5.7788,6.9653,-0.0431,9.8402,0.0263,1.5259,0.8545,0.0916,-0.0431,9.8402,0.0263,1.5259,0.8545,0.0916,9.7881,0.6546,0.4271,-0.0025,-0.0035,0.0013,-0.0446,0.6863,0.0900,0.7203,0.1508,0.5863,-0.1791,0.7754,9.4300,-0.9900,2.4000,0.0000,0.0000,0.0000,0.7240,-0.0697,-0.6830,-0.0654,9.7600,-0.1300,0.5700,0.0000,0.0000,0.0000,0.2144,0.2633,-0.9342,0.1091,4.5000,-0.8700,-8.6500,0.0000,0.0000,0.0000,-0.7307,-0.2756,0.5458,-0.3035,9.4500,0.7500,2.4900,0.0000,0.0000,0.0000,0.6470,0.3299,-0.5803,0.3682,9.7400,-0.0600,1.0300,0.0000,0.0000,0.0000,-0.3961,0.1954,0.0595,0.8951,3.9000,-0.4800,8.9600,0.0000,0.0000,0.0000
393136,0,0,1,6.9214,9.7778,3.7573,6.6138,0.0000,-0.0183,5.7788,6.9653,0.0144,9.8450,0.0503,1.4648,0.5493,0.1221,0.0144,9.8450,0.0503,1.4648,0.5493,0.1221,9.7881,0.6546,0.4271,-0.0025,-0.0035,0.0013,-0.0446,0.6863,0.0900,0.7203,0.1508,0.5863,-0.1791,0.7754,9.4300,-1.0000,2.3700,0.0000,0.0000,0.0000,0.7240,-0.0697,-0.6830,-0.0654,9.7500,-0.1300,0.5700,0.0000,0.0000,0.0000,0.2144,0.2633,-0.9342,0.1091,4.5000,-0.9000,-8.6600,0.0000,0.0000,0.0000,-0.7307,-0.2756,0.5458,-0.3035,9.4400,0.7300,2.4900,0.0000,0.0000,0.0000,0.6470,0.3299,-0.5803,0.3682,9.7400,-0.0600,1.0300,0.0000,0.0000,0.0000,-0.3961,0.1954,0.0595,0.8951,3.8900,-0.4700,8.9700,0.0000,0.0000,0.0000
393137,0,0,1,6.9214,9.7778,3.7573,6.6138,-0.0037,-0.0183,5.7788,6.9653,-0.0192,9.8426,0.0694,1.3428,0.8545,0.0916,-0.0192,9.8426,0.0694,1.3428,0.8545,0.0916,9.7881,0.6546,0.4271,-0.0025,-0.0035,0.0013,-0.0446,0.6863,0.0900,0.7203,0.1508,0.5863,-0.1791,0.7754,9.4400,-0.9800,2.4000,0.0000,0.0000,0.0000,0.7240,-0.0697,-0.6830,-0.0654,9.7600,-0.1300,0.5700,0.0000,0.0000,0.0000,0.2144,0.2633,-0.9342,0.1091,4.4800,-0.8800,-8.6600,0.0000,0.0000,0.0000,-0.7307,-0.2756,0.5458,-0.3035,9.4300,0.7400,2.4700,0.0000,0.0000,0.0000,0.6470,0.3299,-0.5803,0.3682,9.7100,-0.0300,1.0500,0.0000,0.0000,0.0000,-0.3961,0.1954,0.0595,0.8951,3.8700,-0.4500,8.9600,0.0000,0.0000,0.0000
393138,0,0,1,6.9214,9.7778,3.7573,6.6138,-0.0055,0.0110,5.7788,6.9653,-0.0263,9.8402,0.0383,1.4343,0.7019,0.0610,-0.0263,9.8402,0.0383,1.4343,0.7019,0.0610,9.7969,0.6922,0.4384,-0.0035,-0.0042,0.0037,-0.0446,0.6863,0.0900,0.7203,0.1508,0.5863,-0.1791,0.7754,9.4400,-1.0200,2.3700,0.0000,0.0000,0.0000,0.7240,-0.0697,-0.6830,-0.0654,9.7600,-0.1300,0.5500,0.0000,0.0000,0.0000,0.2144,0.2633,-0.9342,0.1091,4.4900,-0.8900,-8.6400,0.0000,0.0000,0.0000,-0.7307,-0.2756,0.5458,-0.3035,9.4300,0.7400,2.4700,0.0000,0.0000,0.0000,0.6470,0.3299,-0.5803,0.3682,9.7100,-0.0300,1.0500,0.0000,0.0000,0.0000,-0.3961,0.1954,0.0595,0.8951,3.8700,-0.4500,8.9600,0.0000,0.0000,0.0000
393139,0,0,1,6.9214,9.7778,3.7573,6.6138,-0.0146,0.0183,5.7788,6.9653,-0.0311,9.8689,0.0766,1.4343,0.5188,0.0305,-0.0311,9.8689,0.0766,1.4343,0.5188,0.0305,9.7969,0.6922,0.4384,-0.0035,-0.0042,0.0037,-0.0446,0.6863,0.0900,0.7203,0.1508,0.5863,-0.1791,0.7754,9.4400,-1.0200,2.3700,0.0000,0.0000,0.0000,0.7240,-0.0697,-0.6830,-0.0654,9.7600,-0.1300,0.5500,0.0000,0.0000,0.0000,0.2144,0.2633,-0.9342,0.1091,4.4900,-0.8900,-8.6500,0.0000,0.0000,0.0000,-0.7307,-0.2756,0.5458,-0.3035,9.4500,0.7600,2.4700,0.0000,0.0000,0.0000,0.6470,0.3300,-0.5803,0.3682,9.7300,0.0000,1.0600,0.0000,0.0000,0.0000,-0.3961,0.1955,0.0595,0.8951,3.8900,-0.4400,8.9700,0.0000,0.0000,0.0000
393140,0,0,1,6.9214,9.7778,3.7573,6.6138,-0.0146,-0.0128,5.7788,6.9653,-0.0048,9.8282,0.0335,1.4954,0.7019,0.1221,-0.0048,9.8282,0.0335,1.4954,0.7019,0.1221,9.7482,0.6627,0.3946,0.0000,-0.0052,0.0021,-0.0446,0.6863,0.0900,0.7203,0.1508,0.5863,-0.1791,0.7754,9.4400,-1.0000,2.3700,0.0000,0.0000,0.0000,0.7240,-0.0697,-0.6830,-0.0654,9.7700,-0.1100,0.5500,0.0000,0.0000,0.0000,0.2144,0.2633,-0.9342,0.1091,4.4900,-0.8900,-8.6500,0.0000,0.0000,0.0000,-0.7307,-0.2756,0.5458,-0.3035,9.4600,0.7600,2.4600,0.0000,0.0000,0.0000,0.6470,0.3300,-0.5803,0.3682,9.7200,0.0000,1.0600,0.0000,0.0000,0.0000,-0.3961,0.1955,0.0595,0.8951,3.8800,-0.4600,8.9800,0.0000,0.0000,0.0000
393141,0,0,1,6.9214,9.7778,3.7573,6.6138,-0.0110,-0.0055,5.7788,6.9653,0.0168,9.8234,0.0575,1.4954,0.7019,0.1221,0.0168,9.8234,0.0575,1.4954,0.7019,0.1221,9.7482,0.6627,0.3946,0.0000,-0.0052,0.0021,-0.0446,0.6863,0.0900,0.7203,0.1508,0.5863,-0.1791,0.7754,9.4500,-1.0200,2.3900,0.0000,0.0000,0.0000,0.7240,-0.0697,-0.6830,-0.0654,9.7800,-0.1000,0.5600,0.0000,0.0000,0.0000,0.2144,0.2633,-0.9342,0.1091,4.4900,-0.8600,-8.6600,0.0000,0.0000,0.0000,-0.7307,-0.2756,0.5458,-0.3035,9.4400,0.7700,2.4400,0.0000,0.0000,0.0000,0.6470,0.3300,-0.5803,0.3682,9.7100,0.0000,1.0600,0.0000,0.0000,0.0000,-0.3961,0.1955,0.0595,0.8951,3.8800,-0.4600,8.9700,0.0000,0.0000,0.0000
393142,0,0,1,6.9214,9.7778,3.7573,6.6138,0.0037,-0.0073,5.7788,6.9653,-0.0239,9.8354,0.0263,1.3428,0.7019,0.1221,-0.0239,9.8354,0.0263,1.3428,0.7019,0.1221,9.7482,0.6627,0.3946,0.0000,-0.0052,0.0021,-0.0446,0.6863,0.0900,0.7203,0.1508,0.5863,-0.1791,0.7754,9.4700,-1.0100,2.3900,0.0000,0.0000,0.0000,0.7240,-0.0697,-0.6830,-0.0654,9.7600,-0.1000,0.5700,0.0000,0.0000,0.0000,0.2144,0.2633,-0.9342,0.1091,4.4800,-0.8700,-8.6500,0.0000,0.0000,0.0000,-0.7307,-0.2756,0.5458,-0.3035,9.4600,0.7800,2.4300,0.0000,0.0000,0.0000,0.6470,0.3300,-0.5803,0.3682,9.7100,0.0000,1.0600,0.0000,0.0000,0.0000,-0.3961,0.1955,0.0595,0.8951,3.8800,-0.4800,8.9700,0.0000,0.0000,0.0000
393143,0,0,1,6.9214,9.7778,3.7573,6.6138,-0.0037,0.0018,5.7788,6.9653,-0.0192,9.8474,0.0335,1.4343,0.6104,0.1831,-0.0192,9.8474,0.0335,1.4343,0.6104,0.1831,9.7648,0.6711,0.3802,0.0054,-0.0052,0.0032,-0.0446,0.6863,0.0900,0.7203,0.1508,0.5863,-0.1791,0.7754,9.4500,-1.0000,2.4000,0.0000,0.0000,0.0000,0.7240,-0.0697,-0.6830,-0.0654,9.7600,-0.1000,0.5700,0.0000,0.0000,0.0000,0.2144,0.2633,-0.9341,0.1091,4.4600,-0.8800,-8.6600,0.0000,0.0000,0.0000,-0.7307,-0.2756,0.5458,-0.3035,9.4600,0.7800,2.4300,0.0000,0.0000,0.0000,0.6470,0.3300,-0.5803,0.3682,9.7200,0.0000,1.0500,0.0000,0.0000,0.0000,-0.3961,0.1955,0.0595,0.8951,3.8800,-0.4800,8.9700,0.0000,0.0000,0.0000
393144,0,0,1,6.9214,9.7778,3.7573,6.6138,0.0165,0.0000,5.7788,6.9653,-0.0383,9.8138,0.0287,1.4343,0.4883,0.2747,-0.0383,9.8138,0.0287,1.4343,0.4883,0.2747,9.7648,0.6711,0.3802,0.0054,-0.0052,0.0032,-0.0446,0.6863,0.0900,0.7203,0.1508,0.5863,-0.1791,0.7754,9.4500,-1.0000,2.4000,0.0000,0.0000,0.0000,0.7240,-0.0697,-0.6830,-0.0654,9.7600,-0.0600,0.5600,0.0000,0.0000,0.0000,0.2144,0.2633,-0.9341,0.1091,4.4800,-0.8700,-8.6500,0.0000,0.0000,0.0000,-0.7307,-0.2756,0.5458,-0.3035,9.4600,0.7800,2.4300,0.0000,0.0000,0.0000,0.6470,0.3300,-0.5803,0.3682,9.7200,-0.0200,1.0700,0.0000,0.0000,0.0000,-0.3961,0.1955,0.0595,0.8951,3.8800,-0.4700,8.9900,0.0000,0.0000,0.0000
393145,0,0,1,6.9214,9.7778,3.7573,6.6138,-0.0256,0.0220,5.7788,6.9653,0.0168,9.8809,0.0120,1.2817,0.6409,0.1831,0.0168,9.8809,0.0120,1.2817,0.6409,0.1831,9.7633,0.6672,0.3572,0.0001,-0.0061,0.0007,-0.0446,0.6863,0.0900,0.7203,0.1508,0.5863,-0.1791,0.7754,9.4700,-1.0100,2.3900,0.0000,0.0000,0.0000,0.7240,-0.0697,-0.6830,-0.0654,9.7700,-0.0800,0.5500,0.0000,0.0000,0.0000,0.2144,0.2633,-0.9341,0.1091,4.4800,-0.8700,-8.6500,0.0000,0.0000,0.0000,-0.7307,-0.2756,0.5458,-0.3035,9.4600,0.7600,2.4200,0.0000,0.0000,0.0000,0.6470,0.3300,-0.5803,0.3682,9.7300,0.0100,1.0700,0.0000,0.0000,0.0000,-0.3961,0.1955,0.0595,0.8951,3.8900,-0.4600,8.9800,0.0000,0.0000,0.0000
393146,0,0,1,6.9214,9.7778,3.7573,6.6138,-0.0092,0.0256,5.7788,6.9653,-0.0311,9.8569,0.0455,1.4343,0.8240,0.1526,-0.0311,9.8569,0.0455,1.4343,0.8240,0.1526,9.7633,0.6672,0.3572,0.0001,-0.0061,0.0007,-0.0446,0.6863,0.0900,0.7203,0.1508,0.5863,-0.1791,0.7754,9.4800,-1.0100,2.3800,0.0000,0.0000,0.0000,0.7241,-0.0697,-0.6830,-0.0654,9.7700,-0.1000,0.5800,0.0000,0.0000,0.0000,0.2144,0.2633,-0.9341,0.1091,4.4700,-0.8800,-8.6600,0.0000,0.0000,0.0000,-0.7307,-0.2755,0.5458,-0.3035,9.4400,0.7200,2.4000,0.0000,0.0000,0.0000,0.6470,0.3300,-0.5803,0.3682,9.7700,0.0000,1.0700,0.0000,0.0000,0.0000,-0.3961,0.1955,0.0595,0.8951,3.9000,-0.4700,8.9700,0.0000,0.0000,0.0000
393147,0,0,1,6.9214,9.7778,3.7573,6.6138,0.0092,0.0220,5.7788,6.9653,-0.0120,9.8641,0.0694,1.3428,0.3967,0.2136,-0.0120,9.8641,0.0694,1.3428,0.3967,0.2136,9.7633,0.6672,0.3572,0.0001,-0.0061,0.0007,-0.0446,0.6863,0.0900,0.7203,0.1508,0.5863,-0.1791,0.7754,9.4900,-0.9900,2.3700,0.0000,0.0000,0.0000,0.7241,-0.0697,-0.6830,-0.0654,9.7600,-0.1000,0.5700,0.0000,0.0000,0.0000,0.2144,0.2633,-0.9341,0.1091,4.4800,-0.8600,-8.6700,0.0000,0.0000,0.0000,-0.7307,-0.2755,0.5458,-0.3035,9.4600,0.7300,2.3800,0.0000,0.0000,0.0000,0.6470,0.3300,-0.5803,0.3682,9.7700,0.0000,1.0700,0.0000,0.0000,0.0000,-0.3961,0.1955,0.0595,0.8951,3.9000,-0.4700,8.9700,0.0000,0.0000,0.0000
393148,0,0,1,6.9214,9.7778,3.7573,6.6138,-0.0055,0.0146,5.7788,6.9653,-0.0431,9.8426,0.1077,1.3123,0.8240,0.2136,-0.0431,9.8426,0.1077,1.3123,0.8240,0.2136,9.7906,0.6398,0.3861,0.0052,-0.0038,0.0018,-0.0446,0.6863,0.0900,0.7203,0.1508,0.5863,-0.1791,0.7754,9.4800,-0.9800,2.3600,0.0000,0.0000,0.0000,0.7241,-0.0697,-0.6830,-0.0654,9.7600,-0.1000,0.5700,0.0000,0.0000,0.0000,0.2144,0.2633,-0.9341,0.1091,4.5100,-0.8700,-8.6600,0.0000,0.0000,0.0000,-0.7307,-0.2755,0.5458,-0.3035,9.4600,0.7300,2.3800,0.0000,0.0000,0.0000,0.6470,0.3300,-0.5803,0.3682,9.7700,-0.0200,1.0500,0.0000,0.0000,0.0000,-0.3961,0.1955,0.0595,0.8951,3.9100,-0.4700,8.9700,0.0000,0.0000,0.0000
393149,0,0,1,6.9214,9.7778,3.7573,6.6138,-0.0110,0.0110,5.7788,6.9653,-0.0192,9.8330,0.0239,1.2512,0.6104,0.0305,-0.0192,9.8330,0.0239,1.2512,0.6104,0.0305,9.7906,0.6398,0.3861,0.0052,-0.0038,0.0018,-0.0446,0.6863,0.0900,0.7203,0.1507,0.5863,-0.1791,0.7754,9.4700,-0.9800,2.3800,0.0000,0.0000,0.0000,0.7241,-0.0697,-0.6830,-0.0654,9.7600,-0.1200,0.5600,0.0000,0.0000,0.0000,0.2144,0.2633,-0.9341,0.1091,4.5100,-0.8600,-8.6500,0.0000,0.0000,0.0000,-0.7307,-0.2755,0.5458,-0.3035,9.4500,0.7200,2.3900,0.0000,0.0000,0.0000,0.6470,0.3300,-0.5802,0.3682,9.7700,0.0000,1.0700,0.0000,0.0000,0.0000,-0.3961,0.1955,0.0595,0.8951,3.8900,-0.4600,8.9700,0.0000,0.0000,0.0000
393150,0,0,1,6.9214,9.7778,3.7573,6.6138,0.0000,0.0055,5.7788,6.9653,-0.0407,9.8067,0.0215,1.3733,0.7935,0.2747,-0.0407,9.8067,0.0215,1.3733,0.7935,0.2747,9.7915,0.6456,0.4186,0.0033,-0.0027,0.0025,-0.0446,0.6863,0.0900,0.7203,0.1508,0.5863,-0.1791,0.7754,9.4700,-0.9700,2.3600,0.0000,0.0000,0.0000,0.7241,-0.0697,-0.6830,-0.0654,9.7600,-0.1200,0.5700,0.0000,0.0000,0.0000,0.2144,0.2633,-0.9341,0.1091,4.5100,-0.8600,-8.6500,0.0000,0.0000,0.0000,-0.7307,-0.2755,0.5458,-0.3035,9.4700,0.7200,2.4000,0.0000,0.0000,0.0000,0.6470,0.3300,-0.5802,0.3683,9.7500,-0.0300,1.0700,0.0000,0.0000,0.0000,-0.3961,0.1955,0.0595,0.8951,3.8800,-0.4700,8.9700,0.0000,0.0000,0.0000
393151,0,0,1,6.9214,9.7778,3.7573,6.6138,-0.0165,0.0092,5.7788,6.9653,0.0192,9.8450,0.0599,1.1597,0.5798,0.2136,0.0192,9.8450,0.0599,1.1597,0.5798,0.2136,9.7915,0.6456,0.4186,0.0033,-0.0027,0.0025,-0.0446,0.6863,0.0900,0.7203,0.1508,0.5863,-0.1791,0.7754,9.4700,-0.9700,2.3600,0.0000,0.0000,0.0000,0.7241,-0.0697,-0.6829,-0.0654,9.7600,-0.1100,0.5600,0.0000,0.0000,0.0000,0.2144,0.2633,-0.9341,0.1091,4.4900,-0.8900,-8.6600,0.0000,0.0000,0.0000,-0.7307,-0.2755,0.5458,-0.3035,9.4600,0.7100,2.4500,0.0000,0.0000,0.0000,0.6470,0.3301,-0.5802,0.3683,9.7200,-0.0500,1.0600,0.0000,0.0000,0.0000,-0.3961,0.1955,0.0595,0.8951,3.8900,-0.4700,8.9700,0.0000,0.0000,0.0000
393152,0,0,1,6.9214,9.7778,3.7573,6.6138,0.0055,0.0311,5.7788,6.9653,-0.0311,9.8402,0.0479,1.2207,0.6409,0.1526,-0.0311,9.8402,0.0479,1.2207,0.6409,0.1526,9.7915,0.6456,0.4186,0.0033,-0.0027,0.0025,-0.0446,0.6863,0.0900,0.7203,0.1507,0.5863,-0.1791,0.7754,9.4600,-0.9800,2.3800,0.0000,0.0000,0.0000,0.7241,-0.0697,-0.6829,-0.0654,9.7800,-0.1200,0.5700,0.0000,0.0000,0.0000,0.2144,0.2633,-0.9341,0.1091,4.5000,-0.8800,-8.6500,0.0000,0.0000,0.0000,-0.7307,-0.2755,0.5458,-0.3035,9.4600,0.7100,2.4500,0.0000,0.0000,0.0000,0.6470,0.3301,-0.5802,0.3683,9.7200,-0.0500,1.0600,0.0000,0.0000,0.0000,-0.3961,0.1955,0.0595,0.8951,3.8900,-0.4700,8.9700,0.0000,0.0000,0.0000
393153,0,0,1,6.9214,9.7778,3.7573,6.6138,0.0073,-0.0037,5.7788,6.9653,0.0000,9.8904,0.0431,1.4038,0.6104,0.3662,0.0000,9.8904,0.0431,1.4038,0.6104,0.3662,9.7720,0.6480,0.4019,0.0082,-0.0057,0.0002,-0.0446,0.6863,0.0900,0.7203,0.1507,0.5863,-0.1791,0.7754,9.4400,-0.9800,2.3800,0.0000,0.0000,0.0000,0.7241,-0.0697,-0.6829,-0.0654,9.7600,-0.1100,0.5600,0.0000,0.0000,0.0000,0.2144,0.2633,-0.9341,0.1091,4.5000,-0.8900,-8.6600,0.0000,0.0000,0.0000,-0.7307,-0.2755,0.5458,-0.3035,9.4600,0.7400,2.4700,0.0000,0.0000,0.0000,0.6470,0.3301,-0.5802,0.3683,9.7300,-0.0300,1.0500,0.0000,0.0000,0.0000,-0.3961,0.1955,0.0595,0.8951,3.8900,-0.4600,8.9700,0.0000,0.0000,0.0000
393154,0,0,1,6.9214,9.7778,3.7573,6.6138,-0.0110,0.0092,5.7788,6.9653,-0.0311,9.9048,0.0144,1.4343,0.7019,0.2747,-0.0311,9.9048,0.0144,1.4343,0.7019,0.2747,9.7720,0.6480,0.4019,0.0082,-0.0057,0.0002,-0.0446,0.6863,0.0900,0.7203,0.1507,0.5863,-0.1791,0.7754,9.4400,-0.9800,2.3900,0.0000,0.0000,0.0000,0.7241,-0.0697,-0.6829,-0.0654,9.7600,-0.1100,0.5600,0.0000,0.0000,0.0000,0.2144,0.2633,-0.9341,0.1091,4.4800,-0.8600,-8.6500,0.0000,0.0000,0.0000,-0.7307,-0.2755,0.5458,-0.3035,9.4300,0.7200,2.4900,0.0000,0.0000,0.0000,0.6470,0.3301,-0.5802,0.3683,9.7400,-0.0600,1.0700,0.0000,0.0000,0.0000,-0.3961,0.1955,0.0595,0.8951,3.8900,-0.4600,8.9700,0.0000,0.0000,0.0000
393155,0,0,1,6.9214,9.7778,3.7573,6.6138,-0.0055,-0.0220,5.7788,6.9653,-0.0287,9.8258,0.0215,1.5564,0.7019,0.0610,-0.0287,9.8258,0.0215,1.5564,0.7019,0.0610,9.8142,0.6670,0.4324,0.0038,-0.0075,0.0022,-0.0446,0.6863,0.0900,0.7203,0.1507,0.5863,-0.1791,0.7754,9.4500,-0.9800,2.4100,0.0000,0.0000,0.0000,0.7241,-0.0697,-0.6829,-0.0654,9.7600,-0.1100,0.5800,0.0000,0.0000,0.0000,0.2144,0.2633,-0.9341,0.1091,4.4800,-0.8600,-8.6500,0.0000,0.0000,0.0000,-0.7307,-0.2755,0.5458,-0.3035,9.4200,0.7300,2.4800,0.0000,0.0000,0.0000,0.6470,0.3301,-0.5802,0.3683,9.7200,-0.0300,1.0600,0.0000,0.0000,0.0000,-0.3961,0.1955,0.0595,0.8951,3.8900,-0.4400,8.9700,0.0000,0.0000,0.0000
393156,0,0,1,6.9214,9.7778,3.7573,6.6138,-0.0055,0.0201,5.7788,6.9653,0.0000,9.8521,0.0024,1.5259,0.5798,0.1831,0.0000,9.8521,0.0024,1.5259,0.5798,0.1831,9.8142,0.6670,0.4324,0.0038,-0.0075,0.0022,-0.0446,0.6863,0.0900,0.7203,0.1507,0.5863,-0.1791,0.7754,9.4500,-0.9800,2.4100,0.0000,0.0000,0.0000,0.7241,-0.0698,-0.6829,-0.0654,9.7600,-0.1100,0.5700,0.0000,0.0000,0.0000,0.2144,0.2633,-0.9341,0.1091,4.4900,-0.8700,-8.6700,0.0000,0.0000,0.0000,-0.7307,-0.2755,0.5458,-0.3035,9.4400,0.7200,2.5000,0.0000,0.0000,0.0000,0.6470,0.3301,-0.5802,0.3683,9.7300,-0.0400,1.0600,0.0000,0.0000,0.0000,-0.3961,0.1955,0.0595,0.8951,3.8900,-0.4500,8.9800,0.0000,0.0000,0.0000
393157,0,0,1,6.9214,9.7778,3.7573,6.6138,-0.0092,-0.0092,5.7788,6.9653,0.0000,9.8378,0.0407,1.3123,0.7019,0.1526,0.0000,9.8378,0.0407,1.3123,0.7019,0.1526,9.8142,0.6670,0.4324,0.0038,-0.0075,0.0022,-0.0446,0.6863,0.0900,0.7203,0.1507,0.5863,-0.1791,0.7754,9.4400,-0.9700,2.4200,0.0000,0.0000,0.0000,0.7241,-0.0698,-0.6829,-0.0654,9.7600,-0.1300,0.5900,0.0000,0.0000,0.0000,0.2144,0.2633,-0.9341,0.1091,4.4900,-0.8900,-8.6600,0.0000,0.0000,0.0000,-0.7307,-0.2755,0.5458,-0.3035,9.4400,0.7200,2.5000,0.0000,0.0000,0.0000,0.6470,0.3301,-0.5802,0.3683,9.7300,-0.0400,1.0600,0.0000,0.0000,0.0000,-0.3961,0.1955,0.0595,0.8951,3.8900,-0.4500,8.9800,0.0000,0.0000,0.0000
393158,0,0,1,6.9214,9.7778,3.7573,6.6138,-0.0073,0.0165,5.7788,6.9653,-0.0168,9.8450,0.0072,1.4038,0.7629,0.1221,-0.0168,9.8450,0.0072,1.4038,0.7629,0.1221,9.7927,0.6439,0.4362,0.0088,-0.0039,0.0025,-0.0446,0.6863,0.0900,0.7203,0.1507,0.5863,-0.1791,0.7754,9.4300,-0.9700,2.4300,0.0000,0.0000,0.0000,0.7241,-0.0698,-0.6829,-0.0654,9.7900,-0.1300,0.6000,0.0000,0.0000,0.0000,0.2144,0.2633,-0.9341,0.1091,4.4900,-0.8700,-8.6600,0.0000,0.0000,0.0000,-0.7307,-0.2755,0.5458,-0.3034,9.4100,0.7200,2.5200,0.0000,0.0000,0.0000,0.6470,0.3301,-0.5802,0.3683,9.7500,0.0000,1.1000,0.0000,0.0000,0.0000,-0.3961,0.1955,0.0595,0.8951,3.8900,-0.4500,8.9600,0.0000,0.0000,0.0000
393159,0,0,1,6.9214,9.7778,3.7573,6.6138,0.0128,0.0018,5.7788,6.9653,0.0455,9.8761,0.0407,1.5259,0.5798,-0.0305,0.0455,9.8761,0.0407,1.5259,0.5798,-0.0305,9.7927,0.6439,0.4362,0.0088,-0.0039,0.0025,-0.0446,0.6863,0.0900,0.7203,0.1507,0.5863,-0.1791,0.7754,9.3900,-0.9500,2.4500,0.0000,0.0000,0.0000,0.7241,-0.0698,-0.6829,-0.0654,9.7900,-0.1300,0.6000,0.0000,0.0000,0.0000,0.2144,0.2633,-0.9341,0.1091,4.4800,-0.8700,-8.6500,0.0000,0.0000,0.0000,-0.7307,-0.2755,0.5458,-0.3034,9.4200,0.7300,2.5300,0.0000,0.0000,0.0000,0.6470,0.3301,-0.5802,0.3683,9.7300,0.0100,1.1100,0.0000,0.0000,0.0000,-0.3961,0.1955,0.0595,0.8951,3.8900,-0.4400,8.9600,0.0000,0.0000,0.0000
393160,0,0,1,6.9214,9.7778,3.7573,6.6138,-0.0092,-0.0073,5.7788,6.9653,-0.0431,9.8330,0.0287,1.3733,0.6714,0.2747,-0.0431,9.8330,0.0287,1.3733,0.6714,0.2747,9.7878,0.6411,0.4483,0.0026,-0.0054,0.0021,-0.0446,0.6864,0.0900,0.7203,0.1507,0.5863,-0.1791,0.7754,9.3900,-0.9500,2.4500,0.0000,0.0000,0.0000,0.7241,-0.0698,-0.6829,-0.0654,9.7800,-0.1200,0.6000,0.0000,0.0000,0.0000,0.2144,0.2633,-0.9341,0.1091,4.4800,-0.8700,-8.6500,0.0000,0.0000,0.0000,-0.7307,-0.2755,0.5458,-0.3034,9.4000,0.7200,2.5200,0.0000,0.0000,0.0000,0.6470,0.3301,-0.5801,0.3683,9.7500,0.0200,1.1000,0.0000,0.0000,0.0000,-0.3961,0.1955,0.0595,0.8951,3.9000,-0.4600,8.9800,0.0000,0.0000,0.0000
393161,0,0,1,6.9214,9.7778,3.7573,6.6138,0.0073,-0.0183,5.7788,6.9653,-0.0144,9.8354,0.0335,1.4648,0.4578,0.2136,-0.0144,9.8354,0.0335,1.4648,0.4578,0.2136,9.7878,0.6411,0.4483,0.0026,-0.0054,0.0021,-0.0446,0.6864,0.0900,0.7203,0.1507,0.5863,-0.1791,0.7754,9.3900,-0.9400,2.4700,0.0000,0.0000,0.0000,0.7241,-0.0698,-0.6829,-0.0654,9.7800,-0.1100,0.6100,0.0000,0.0000,0.0000,0.2144,0.2633,-0.9341,0.1091,4.4800,-0.8700,-8.6500,0.0000,0.0000,0.0000,-0.7307,-0.2755,0.5458,-0.3034,9.3700,0.7300,2.5000,0.0000,0.0000,0.0000,0.6470,0.3301,-0.5801,0.3683,9.7300,0.0300,1.0800,0.0000,0.0000,0.0000,-0.3960,0.1955,0.0595,0.8951,3.9100,-0.4700,8.9700,0.0000,0.0000,0.0000
393162,0,0,1,6.9214,9.7778,3.7573,6.6138,-0.0055,-0.0146,5.7788,6.9653,-0.0168,9.8928,0.0311,1.4038,0.6714,0.0916,-0.0168,9.8928,0.0311,1.4038,0.6714,0.0916,9.7878,0.6411,0.4483,0.0026,-0.0054,0.0021,-0.0446,0.6864,0.0900,0.7203,0.1507,0.5863,-0.1791,0.7754,9.3900,-0.9400,2.4700,0.0000,0.0000,0.0000,0.7241,-0.0698,-0.6829,-0.0654,9.7600,-0.1200,0.6000,0.0000,0.0000,0.0000,0.2144,0.2633,-0.9341,0.1091,4.4900,-0.8900,-8.6500,0.0000,0.0000,0.0000,-0.7307,-0.2755,0.5458,-0.3034,9.3900,0.7100,2.4800,0.0000,0.0000,0.0000,0.6470,0.3301,-0.5801,0.3683,9.7300,0.0300,1.0800,0.0000,0.0000,0.0000,-0.3960,0.1955,0.0595,0.8951,3.8900,-0.4600,8.9800,0.0000,0.0000,0.0000
393163,0,0,1,6.9214,9.7778,3.7573,6.6138,-0.0092,0.0165,5.7788,6.9653,-0.0239,9.8713,-0.0024,1.3123,0.5493,0.2747,-0.0239,9.8713,-0.0024,1.3123,0.5493,0.2747,9.7621,0.6102,0.4262,0.0038,-0.0038,0.0023,-0.0446,0.6864,0.0900,0.7203,0.1507,0.5863,-0.1791,0.7754,9.3900,-0.9300,2.4700,0.0000,0.0000,0.0000,0.7241,-0.0698,-0.6829,-0.0654,9.7600,-0.1200,0.6000,0.0000,0.0000,0.0000,0.2144,0.2633,-0.9341,0.1091,4.4800,-0.8600,-8.6400,0.0000,0.0000,0.0000,-0.7307,-0.2755,0.5458,-0.3034,9.3900,0.7100,2.4800,0.0000,0.0000,0.0000,0.6470,0.3301,-0.5801,0.3683,9.7500,0.0000,1.0900,0.0000,0.0000,0.0000,-0.3960,0.1955,0.0595,0.8951,3.8900,-0.4600,8.9800,0.0000,0.0000,0.0000
393164,0,0,1,6.9214,9.7778,3.7573,6.6138,0.0073,0.0037,5.7788,6.9653,0.0311,9.8474,0.0742,1.4954,0.5798,0.1526,0.0311,9.8474,0.0742,1.4954,0.5798,0.1526,9.7621,0.6102,0.4262,0.0038,-0.0038,0.0023,-0.0446,0.6864,0.0900,0.7203,0.1507,0.5863,-0.1790,0.7754,9.3800,-0.9300,2.4800,0.0000,0.0000,0.0000,0.7241,-0.0698,-0.6829,-0.0654,9.7700,-0.1500,0.6100,0.0000,0.0000,0.0000,0.2144,0.2633,-0.9341,0.1091,4.4900,-0.8800,-8.6500,0.0000,0.0000,0.0000,-0.7307,-0.2755,0.5458,-0.3034,9.4100,0.7200,2.4800,0.0000,0.0000,0.0000,0.6470,0.3301,-0.5801,0.3683,9.7300,0.0100,1.0800,0.0000,0.0000,0.0000,-0.3960,0.1955,0.0595,0.8951,3.9000,-0.4400,8.9700,0.0000,0.0000,0.0000
393165,0,0,1,6.9214,9.7778,3.7573,6.6138,0.0037,0.0220,5.7788,6.9653,-0.0096,9.7971,0.0168,1.3733,0.6104,0.1831,-0.0096,9.7971,0.0168,1.3733,0.6104,0.1831,9.7916,0.6763,0.4582,0.0024,-0.0027,0.0023,-0.0446,0.6864,0.0900,0.7203,0.1507,0.5863,-0.1790,0.7754,9.3800,-0.9300,2.4800,0.0000,0.0000,0.0000,0.7241,-0.0698,-0.6829,-0.0654,9.7700,-0.1300,0.5900,0.0000,0.0000,0.0000,0.2144,0.2633,-0.9341,0.1091,4.4900,-0.8800,-8.6500,0.0000,0.0000,0.0000,-0.7307,-0.2755,0.5458,-0.3034,9.4000,0.7100,2.4800,0.0000,0.0000,0.0000,0.6470,0.3301,-0.5801,0.3683,9.7100,0.0000,1.0800,0.0000,0.0000,0.0000,-0.3960,0.1955,0.0595,0.8951,3.9000,-0.4700,8.9600,0.0000,0.0000,0.0000
393166,0,0,1,6.9214,9.7778,3.7573,6.6138,0.0073,-0.0092,5.7788,6.9653,-0.0335,9.8186,0.0072,1.4343,0.7019,0.4578,-0.0335,9.8186,0.0072,1.4343,0.7019,0.4578,9.7916,0.6763,0.4582,0.0024,-0.0027,0.0023,-0.0446,0.6864,0.0900,0.7203,0.1507,0.5863,-0.1790,0.7754,9.3800,-0.9600,2.4800,0.0000,0.0000,0.0000,0.7241,-0.0698,-0.6829,-0.0654,9.7800,-0.1200,0.5900,0.0000,0.0000,0.0000,0.2144,0.2633,-0.9341,0.1091,4.4600,-0.8800,-8.6700,0.0000,0.0000,0.0000,-0.7307,-0.2755,0.5458,-0.3034,9.3700,0.7200,2.5000,0.0000,0.0000,0.0000,0.6470,0.3301,-0.5801,0.3683,9.7300,-0.0100,1.0800,0.0000,0.0000,0.0000,-0.3960,0.1955,0.0595,0.8951,3.8900,-0.4700,8.9700,0.0000,0.0000,0.0000
393167,0,0,1,6.9214,9.7778,3.7573,6.6138,0.0110,-0.0092,5.7788,6.9653,-0.0263,9.8545,0.0622,1.4038,0.4883,0.3052,-0.0263,9.8545,0.0622,1.4038,0.4883,0.3052,9.7916,0.6763,0.4582,0.0024,-0.0027,0.0023,-0.0446,0.6864,0.0900,0.7203,0.1506,0.5863,-0.1790,0.7755,9.3900,-0.9500,2.4600,0.0000,0.0000,0.0000,0.7241,-0.0698,-0.6829,-0.0654,9.7700,-0.1100,0.6100,0.0000,0.0000,0.0000,0.2145,0.2633,-0.9341,0.1091,4.5100,-0.8800,-8.6500,0.0000,0.0000,0.0000,-0.7307,-0.2755,0.5458,-0.3034,9.3800,0.7100,2.5000,0.0000,0.0000,0.0000,0.6470,0.3301,-0.5801,0.3683,9.7400,0.0100,1.0800,0.0000,0.0000,0.0000,-0.3960,0.1955,0.0595,0.8951,3.9000,-0.4600,8.9700,0.0000,0.0000,0.0000
393168,0,0,1,6.9214,9.7778,3.7573,6.6138,0.0037,-0.0146,5.7788,6.9653,-0.0431,9.8450,-0.0024,1.4038,0.5493,0.1526,-0.0431,9.8450,-0.0024,1.4038,0.5493,0.1526,9.7441,0.6163,0.4078,0.0058,-0.0021,0.0018,-0.0446,0.6864,0.0900,0.7203,0.1506,0.5863,-0.1790,0.7755,9.3800,-0.9400,2.4500,0.0000,0.0000,0.0000,0.7241,-0.0698,-0.6829,-0.0654,9.7700,-0.1100,0.6100,0.0000,0.0000,0.0000,0.2145,0.2633,-0.9341,0.1091,4.5100,-0.8700,-8.6500,0.0000,0.0000,0.0000,-0.7307,-0.2755,0.5458,-0.3034,9.3800,0.7100,2.5000,0.0000,0.0000,0.0000,0.6470,0.3301,-0.5801,0.3683,9.7400,0.0100,1.0800,0.0000,0.0000,0.0000,-0.3960,0.1955,0.0595,0.8951,3.9000,-0.4600,8.9700,0.0000,0.0000,0.0000
393169,0,0,1,6.9214,9.7778,3.7573,6.6138,-0.0128,-0.0092,5.7788,6.9653,-0.0311,9.7779,0.0431,1.5259,0.7324,0.0305,-0.0311,9.7779,0.0431,1.5259,0.7324,0.0305,9.7441,0.6163,0.4078,0.0058,-0.0021,0.0018,-0.0446,0.6864,0.0900,0.7203,0.1506,0.5863,-0.1790,0.7755,9.3800,-0.9400,2.4500,0.0000,0.0000,0.0000,0.7241,-0.0698,-0.6829,-0.0654,9.7800,-0.1200,0.6300,0.0000,0.0000,0.0000,0.2145,0.2633,-0.9341,0.1091,4.4900,-0.8600,-8.6500,0.0000,0.0000,0.0000,-0.7307,-0.2755,0.5458,-0.3034,9.3900,0.7100,2.5100,0.0000,0.0000,0.0000,0.6470,0.3301,-0.5801,0.3683,9.7400,0.0100,1.0800,0.0000,0.0000,0.0000,-0.3960,0.1955,0.0595,0.8951,3.9100,-0.4500,8.9600,0.0000,0.0000,0.0000
393170,0,0,1,6.9214,9.7778,3.7573,6.6138,-0.0055,-0.0110,5.7788,6.9653,-0.0239,9.8090,0.0192,1.4343,0.6104,0.3967,-0.0239,9.8090,0.0192,1.4343,0.6104,0.3967,9.7549,0.6918,0.4271,0.0035,-0.0011,0.0051,-0.0446,0.6864,0.0900,0.7203,0.1506,0.5863,-0.1790,0.7755,9.3800,-0.9400,2.4500,0.0000,0.0000,0.0000,0.7241,-0.0698,-0.6829,-0.0654,9.7700,-0.1100,0.6000,0.0000,0.0000,0.0000,0.2145,0.2633,-0.9341,0.1091,4.4900,-0.8600,-8.6500,0.0000,0.0000,0.0000,-0.7307,-0.2755,0.5458,-0.3034,9.4000,0.7000,2.5300,0.0000,0.0000,0.0000,0.6471,0.3301,-0.5801,0.3683,9.7200,0.0200,1.0900,0.0000,0.0000,0.0000,-0.3960,0.1955,0.0595,0.8951,3.9000,-0.4500,8.9500,0.0000,0.0000,0.0000
393171,0,0,1,6.9214,9.7778,3.7573,6.6138,-0.0073,0.0092,5.7788,6.9653,-0.0215,9.8521,0.0407,1.5259,0.4578,0.1221,-0.0215,9.8521,0.0407,1.5259,0.4578,0.1221,9.7549,0.6918,0.4271,0.0035,-0.0011,0.0051,-0.0446,0.6864,0.0900,0.7203,0.1506,0.5863,-0.1790,0.7755,9.4200,-0.9500,2.4400,0.0000,0.0000,0.0000,0.7241,-0.0698,-0.6829,-0.0654,9.7700,-0.1200,0.6000,0.0000,0.0000,0.0000,0.2145,0.2633,-0.9341,0.1091,4.5000,-0.8600,-8.6500,0.0000,0.0000,0.0000,-0.7307,-0.2755,0.5458,-0.3034,9.4000,0.7100,2.5500,0.0000,0.0000,0.0000,0.6471,0.3301,-0.5801,0.3683,9.7400,0.0100,1.0900,0.0000,0.0000,0.0000,-0.3960,0.1956,0.0595,0.8951,3.9000,-0.4700,8.9600,0.0000,0.0000,0.0000
393172,0,0,1,6.9214,9.7559,3.7573,6.5918,0.0037,0.0275,5.7788,6.9653,-0.0335,9.8114,0.0431,1.4038,0.3967,0.0610,-0.0335,9.8114,0.0431,1.4038,0.3967,0.0610,9.7314,0.6410,0.3950,0.0087,-0.0018,0.0009,-0.0446,0.6864,0.0900,0.7203,0.1506,0.5863,-0.1790,0.7755,9.4000,-0.9400,2.4400,0.0000,0.0000,0.0000,0.7241,-0.0698,-0.6829,-0.0654,9.7600,-0.1300,0.6000,0.0000,0.0000,0.0000,0.2145,0.2633,-0.9341,0.1091,4.5000,-0.8400,-8.6600,0.0000,0.0000,0.0000,-0.7307,-0.2755,0.5458,-0.3034,9.4000,0.7100,2.5400,0.0000,0.0000,0.0000,0.6471,0.3301,-0.5801,0.3683,9.7400,0.0000,1.0900,0.0000,0.0000,0.0000,-0.3960,0.1956,0.0595,0.8951,3.9000,-0.4700,8.9600,0.0000,0.0000,0.0000
393173,0,0,1,6.9214,9.7559,3.7573,6.5918,-0.0018,-0.0073,5.7788,6.9653,-0.0096,9.8067,0.0263,1.4038,0.5188,0.2747,-0.0096,9.8067,0.0263,1.4038,0.5188,0.2747,9.7314,0.6410,0.3950,0.0087,-0.0018,0.0009,-0.0446,0.6864,0.0900,0.7203,0.1506,0.5863,-0.1790,0.7755,9.4300,-0.9700,2.4200,0.0000,0.0000,0.0000,0.7241,-0.0698,-0.6829,-0.0654,9.7600,-0.1400,0.6100,0.0000,0.0000,0.0000,0.2145,0.2633,-0.9341,0.1091,4.5000,-0.8700,-8.6700,0.0000,0.0000,0.0000,-0.7307,-0.2755,0.5458,-0.3034,9.4000,0.7100,2.5400,0.0000,0.0000,0.0000,0.6471,0.3301,-0.5801,0.3683,9.7400,0.0000,1.0900,0.0000,0.0000,0.0000,-0.3960,0.1956,0.0595,0.8951,3.8900,-0.4700,8.9700,0.0000,0.0000,0.0000
393174,0,0,1,6.9214,9.7559,3.7573,6.5918,-0.0055,-0.0128,5.7788,6.9653,-0.0527,9.8114,0.0287,1.3428,0.5188,0.0916,-0.0527,9.8114,0.0287,1.3428,0.5188,0.0916,9.7314,0.6410,0.3950,0.0087,-0.0018,0.0009,-0.0446,0.6864,0.0900,0.7203,0.1506,0.5863,-0.1790,0.7755,9.4100,-0.9600,2.4200,0.0000,0.0000,0.0000,0.7241,-0.0698,-0.6829,-0.0654,9.7600,-0.1400,0.6100,0.0000,0.0000,0.0000,0.2145,0.2633,-0.9341,0.1092,4.5000,-0.8800,-8.6500,0.0000,0.0000,0.0000,-0.7307,-0.2755,0.5458,-0.3034,9.3800,0.7500,2.5500,0.0000,0.0000,0.0000,0.6471,0.3301,-0.5801,0.3683,9.7400,-0.0100,1.1000,0.0000,0.0000,0.0000,-0.3960,0.1956,0.0595,0.8951,3.8800,-0.4700,8.9800,0.0000,0.0000,0.0000
393175,0,0,1,6.9214,9.7559,3.7573,6.5918,0.0037,0.0201,5.7788,6.9653,-0.0527,9.8282,0.0215,1.5259,0.7019,0.0610,-0.0527,9.8282,0.0215,1.5259,0.7019,0.0610,9.7441,0.6652,0.4002,0.0033,0.0003,0.0043,-0.0446,0.6864,0.0900,0.7203,0.1506,0.5863,-0.1790,0.7755,9.4100,-0.9600,2.4200,0.0000,0.0000,0.0000,0.7241,-0.0698,-0.6829,-0.0654,9.7400,-0.1200,0.5900,0.0000,0.0000,0.0000,0.2145,0.2633,-0.9341,0.1092,4.5000,-0.8800,-8.6500,0.0000,0.0000,0.0000,-0.7307,-0.2755,0.5458,-0.3034,9.3900,0.7000,2.5300,0.0000,0.0000,0.0000,0.6471,0.3301,-0.5801,0.3683,9.7300,0.0000,1.0800,0.0000,0.0000,0.0000,-0.3960,0.1956,0.0595,0.8951,3.9000,-0.4600,8.9700,0.0000,0.0000,0.0000
393176,0,0,1,6.9214,9.7559,3.7573,6.5918,-0.0092,-0.0110,5.7788,6.9653,0.0000,9.7923,0.0407,1.5564,0.5493,0.2136,0.0000,9.7923,0.0407,1.5564,0.5493,0.2136,9.7441,0.6652,0.4002,0.0033,0.0003,0.0043,-0.0446,0.6864,0.0900,0.7203,0.1506,0.5863,-0.1790,0.7755,9.4000,-0.9700,2.4100,0.0000,0.0000,0.0000,0.7241,-0.0698,-0.6829,-0.0654,9.7500,-0.1500,0.6000,0.0000,0.0000,0.0000,0.2145,0.2633,-0.9341,0.1092,4.4800,-0.8800,-8.6400,0.0000,0.0000,0.0000,-0.7307,-0.2755,0.5458,-0.3034,9.3900,0.7000,2.5300,0.0000,0.0000,0.0000,0.6471,0.3301,-0.5801,0.3683,9.7200,0.0000,1.1000,0.0000,0.0000,0.0000,-0.3960,0.1956,0.0595,0.8951,3.8900,-0.4600,8.9700,0.0000,0.0000,0.0000
393177,0,0,1,6.9214,9.7559,3.7573,6.5918,0.0055,0.0311,5.7788,6.9653,-0.0120,9.8617,0.0168,1.4648,0.4883,0.1831,-0.0120,9.8617,0.0168,1.4648,0.4883,0.1831,9.7526,0.6395,0.4069,0.0086,-0.0015,0.0017,-0.0446,0.6864,0.0900,0.7203,0.1506,0.5863,-0.1789,0.7755,9.4000,-0.9900,2.4200,0.0000,0.0000,0.0000,0.7241,-0.0698,-0.6829,-0.0654,9.7600,-0.1100,0.5800,0.0000,0.0000,0.0000,0.2145,0.2633,-0.9341,0.1092,4.5000,-0.8700,-8.6500,0.0000,0.0000,0.0000,-0.7307,-0.2755,0.5458,-0.3035,9.4000,0.6900,2.5100,0.0000,0.0000,0.0000,0.6471,0.3301,-0.5801,0.3683,9.7100,0.0000,1.0900,0.0000,0.0000,0.0000,-0.3960,0.1956,0.0595,0.8951,3.8900,-0.4600,8.9700,0.0000,0.0000,0.0000
393178,0,0,1,6.9214,9.7559,3.7573,6.5918,0.0037,0.0073,5.7788,6.9653,-0.0335,9.8019,0.0527,1.5564,0.5798,-0.0305,-0.0335,9.8019,0.0527,1.5564,0.5798,-0.0305,9.7526,0.6395,0.4069,0.0086,-0.0015,0.0017,-0.0446,0.6864,0.0900,0.7203,0.1506,0.5863,-0.1789,0.7755,9.4100,-0.9900,2.4100,0.0000,0.0000,0.0000,0.7241,-0.0698,-0.6829,-0.0654,9.7500,-0.1200,0.5900,0.0000,0.0000,0.0000,0.2145,0.2633,-0.9341,0.1092,4.5100,-0.8700,-8.6400,0.0000,0.0000,0.0000,-0.7307,-0.2755,0.5458,-0.3035,9.4000,0.6900,2.5100,0.0000,0.0000,0.0000,0.6471,0.3301,-0.5801,0.3683,9.7100,0.0000,1.0900,0.0000,0.0000,0.0000,-0.3960,0.1956,0.0595,0.8951,3.8900,-0.4600,8.9500,0.0000,0.0000,0.0000
393179,0,0,1,6.9214,9.7559,3.7573,6.5918,-0.0110,0.0146,5.7788,6.9653,-0.0144,9.8426,0.0192,1.6174,0.5188,0.0916,-0.0144,9.8426,0.0192,1.6174,0.5188,0.0916,9.7526,0.6395,0.4069,0.0086,-0.0015,0.0017,-0.0446,0.6864,0.0900,0.7203,0.1506,0.5863,-0.1789,0.7755,9.4300,-0.9900,2.4100,0.0000,0.0000,0.0000,0.7241,-0.0698,-0.6829,-0.0654,9.7500,-0.1200,0.5900,0.0000,0.0000,0.0000,0.2145,0.2633,-0.9341,0.1092,4.4900,-0.9000,-8.6500,0.0000,0.0000,0.0000,-0.7307,-0.2755,0.5457,-0.3035,9.3900,0.7100,2.5100,0.0000,0.0000,0.0000,0.6471,0.3301,-0.5801,0.3683,9.7200,0.0000,1.0900,0.0000,0.0000,0.0000,-0.3960,0.1956,0.0595,0.8951,3.9000,-0.4600,8.9500,0.0000,0.0000,0.0000
393180,0,0,1,6.9214,9.7559,3.7573,6.5918,-0.0220,0.0073,5.7788,6.9653,-0.0144,9.8474,0.0551,1.6479,0.4578,0.1526,-0.0144,9.8474,0.0551,1.6479,0.4578,0.1526,9.7776,0.6426,0.4106,0.0044,0.0004,0.0028,-0.0446,0.6864,0.0900,0.7203,0.1506,0.5863,-0.1789,0.7755,9.4300,-0.9900,2.4100,0.0000,0.0000,0.0000,0.7242,-0.0698,-0.6829,-0.0654,9.7600,-0.1200,0.5800,0.0000,0.0000,0.0000,0.2145,0.2633,-0.9341,0.1092,4.4900,-0.9000,-8.6500,0.0000,0.0000,0.0000,-0.7308,-0.2755,0.5457,-0.3035,9.4000,0.7200,2.5000,0.0000,0.0000,0.0000,0.6471,0.3301,-0.5801,0.3683,9.7400,0.0000,1.0700,0.0000,0.0000,0.0000,-0.3960,0.1956,0.0595,0.8951,3.9000,-0.4700,8.9700,0.0000,0.0000,0.0000
393181,0,0,1,6.9214,9.7559,3.7573,6.5918,0.0183,-0.0220,5.7788,6.9653,-0.0479,9.8378,0.0120,1.3428,0.5493,0.2441,-0.0479,9.8378,0.0120,1.3428,0.5493,0.2441,9.7776,0.6426,0.4106,0.0044,0.0004,0.0028,-0.0446,0.6864,0.0900,0.7203,0.1506,0.5863,-0.1789,0.7755,9.4100,-1.0000,2.4100,0.0000,0.0000,0.0000,0.7242,-0.0698,-0.6829,-0.0654,9.7500,-0.1200,0.5600,0.0000,0.0000,0.0000,0.2145,0.2633,-0.9341,0.1092,4.5000,-0.8800,-8.6400,0.0000,0.0000,0.0000,-0.7308,-0.2755,0.5457,-0.3035,9.4100,0.7100,2.4800,0.0000,0.0000,0.0000,0.6471,0.3301,-0.5801,0.3683,9.7400,0.0000,1.0700,0.0000,0.0000,0.0000,-0.3960,0.1956,0.0595,0.8951,3.8800,-0.4700,8.9700,0.0000,0.0000,0.0000
393182,0,0,1,6.9214,9.7559,3.7573,6.5918,-0.0037,0.0201,5.7788,6.9653,-0.0335,9.8019,0.0263,1.4954,0.5188,0.0000,-0.0335,9.8019,0.0263,1.4954,0.5188,0.0000,9.7776,0.6426,0.4106,0.0044,0.0004,0.0028,-0.0446,0.6864,0.0900,0.7203,0.1506,0.5863,-0.1789,0.7755,9.4000,-1.0000,2.4000,0.0000,0.0000,0.0000,0.7242,-0.0698,-0.6829,-0.0654,9.7500,-0.1100,0.5700,0.0000,0.0000,0.0000,0.2145,0.2633,-0.9341,0.1092,4.5100,-0.8700,-8.6500,0.0000,0.0000,0.0000,-0.7308,-0.2755,0.5457,-0.3035,9.4100,0.7100,2.4800,0.0000,0.0000,0.0000,0.6471,0.3301,-0.5801,0.3683,9.7400,0.0000,1.0700,0.0000,0.0000,0.0000,-0.3960,0.1956,0.0595,0.8951,3.8800,-0.4700,8.9600,0.0000,0.0000,0.0000
393183,0,0,1,6.9214,9.7559,3.7573,6.5918,0.0037,-0.0073,5.7788,6.9653,-0.0311,9.8138,0.0503,1.4954,0.5188,0.0916,-0.0311,9.8138,0.0503,1.4954,0.5188,0.0916,9.7781,0.6821,0.4125,0.0110,-0.0029,0.0007,-0.0446,0.6863,0.0900,0.7203,0.1506,0.5863,-0.1789,0.7755,9.4500,-0.9900,2.4200,0.0000,0.0000,0.0000,0.7242,-0.0698,-0.6829,-0.0654,9.7500,-0.1100,0.5700,0.0000,0.0000,0.0000,0.2145,0.2633,-0.9341,0.1091,4.4900,-0.8600,-8.6500,0.0000,0.0000,0.0000,-0.7308,-0.2755,0.5457,-0.3035,9.4400,0.7100,2.4900,0.0000,0.0000,0.0000,0.6471,0.3301,-0.5801,0.3683,9.7500,0.0000,1.0600,0.0000,0.0000,0.0000,-0.3960,0.1956,0.0595,0.8951,3.8800,-0.4700,8.9600,0.0000,0.0000,0.0000
393184,0,0,1,6.9214,9.7559,3.7573,6.5918,0.0055,0.0183,5.7788,6.9653,-0.0072,9.8904,0.0622,1.4343,0.3662,0.1526,-0.0072,9.8904,0.0622,1.4343,0.3662,0.1526,9.7781,0.6821,0.4125,0.0110,-0.0029,0.0007,-0.0446,0.6863,0.0900,0.7203,0.1506,0.5862,-0.1789,0.7756,9.4400,-0.9800,2.4200,0.0000,0.0000,0.0000,0.7242,-0.0698,-0.6829,-0.0654,9.7700,-0.1200,0.5600,0.0000,0.0000,0.0000,0.2145,0.2633,-0.9341,0.1091,4.4800,-0.8900,-8.6600,0.0000,0.0000,0.0000,-0.7308,-0.2755,0.5457,-0.3035,9.4500,0.7400,2.4900,0.0000,0.0000,0.0000,0.6471,0.3301,-0.5801,0.3683,9.7500,-0.0100,1.0600,0.0000,0.0000,0.0000,-0.3960,0.1956,0.0595,0.8951,3.8800,-0.4800,8.9700,0.0000,0.0000,0.0000
393185,0,0,1,6.9214,9.7559,3.7573,6.5918,0.0073,-0.0055,5.7788,6.9653,-0.0144,9.8378,0.0000,1.5869,0.4883,-0.0610,-0.0144,9.8378,0.0000,1.5869,0.4883,-0.0610,9.7738,0.6115,0.4067,0.0056,-0.0016,0.0034,-0.0446,0.6863,0.0900,0.7203,0.1506,0.5862,-0.1789,0.7756,9.4400,-0.9800,2.4200,0.0000,0.0000,0.0000,0.7242,-0.0698,-0.6829,-0.0654,9.7800,-0.1200,0.5800,0.0000,0.0000,0.0000,0.2145,0.2633,-0.9341,0.1091,4.4800,-0.8900,-8.6600,0.0000,0.0000,0.0000,-0.7308,-0.2755,0.5457,-0.3035,9.4200,0.7300,2.5100,0.0000,0.0000,0.0000,0.6471,0.3301,-0.5801,0.3683,9.7400,0.0000,1.0700,0.0000,0.0000,0.0000,-0.3960,0.1956,0.0595,0.8951,3.8900,-0.4800,8.9600,0.0000,0.0000,0.0000
393186,0,0,1,6.9214,9.7559,3.7573,6.5918,-0.0201,-0.0366,5.7788,6.9653,-0.0335,9.8593,0.0287,1.6785,0.4883,0.1221,-0.0335,9.8593,0.0287,1.6785,0.4883,0.1221,9.7738,0.6115,0.4067,0.0056,-0.0016,0.0034,-0.0446,0.6863,0.0900,0.7203,0.1506,0.5862,-0.1789,0.7756,9.4500,-1.0000,2.4100,0.0000,0.0000,0.0000,0.7242,-0.0698,-0.6829,-0.0654,9.7800,-0.1000,0.5700,0.0000,0.0000,0.0000,0.2145,0.2633,-0.9341,0.1091,4.4900,-0.8900,-8.6500,0.0000,0.0000,0.0000,-0.7308,-0.2754,0.5457,-0.3035,9.4000,0.7500,2.5100,0.0000,0.0000,0.0000,0.6471,0.3301,-0.5801,0.3683,9.7300,0.0000,1.0500,0.0000,0.0000,0.0000,-0.3960,0.1956,0.0595,0.8951,3.8800,-0.4700,8.9700,0.0000,0.0000,0.0000
393187,0,0,1,6.9214,9.7559,3.7573,6.5918,0.0018,0.0092,5.7788,6.9653,-0.0407,9.8904,0.0527,1.3428,0.6409,0.0610,-0.0407,9.8904,0.0527,1.3428,0.6409,0.0610,9.7738,0.6115,0.4067,0.0056,-0.0016,0.0034,-0.0446,0.6863,0.0900,0.7203,0.1506,0.5862,-0.1789,0.7756,9.4500,-0.9900,2.4100,0.0000,0.0000,0.0000,0.7242,-0.0698,-0.6829,-0.0654,9.7600,-0.1000,0.5600,0.0000,0.0000,0.0000,0.2145,0.2633,-0.9341,0.1091,4.4900,-0.8800,-8.6500,0.0000,0.0000,0.0000,-0.7308,-0.2754,0.5457,-0.3035,9.4000,0.7500,2.5100,0.0000,0.0000,0.0000,0.6471,0.3301,-0.5801,0.3683,9.7300,0.0000,1.0500,0.0000,0.0000,0.0000,-0.3960,0.1956,0.0595,0.8951,3.8900,-0.4700,8.9600,0.0000,0.0000,0.0000
393188,0,0,1,6.9214,9.7559,3.7573,6.5918,-0.0037,-0.0037,5.7788,6.9653,-0.0335,9.8617,0.0192,1.5869,0.5493,0.0610,-0.0335,9.8617,0.0192,1.5869,0.5493,0.0610,9.7765,0.6688,0.4147,0.0054,0.0029,0.0018,-0.0446,0.6863,0.0900,0.7203,0.1506,0.5862,-0.1789,0.7756,9.4700,-0.9800,2.4100,0.0000,0.0000,0.0000,0.7242,-0.0698,-0.6829,-0.0654,9.7600,-0.1000,0.5600,0.0000,0.0000,0.0000,0.2145,0.2633,-0.9341,0.1091,4.4800,-0.8700,-8.6600,0.0000,0.0000,0.0000,-0.7308,-0.2754,0.5457,-0.3035,9.4200,0.7300,2.5000,0.0000,0.0000,0.0000,0.6471,0.3301,-0.5801,0.3683,9.7300,-0.0500,1.0700,0.0000,0.0000,0.0000,-0.3960,0.1956,0.0595,0.8951,3.8900,-0.4700,8.9600,0.0000,0.0000,0.0000
393189,0,0,1,6.9214,9.7559,3.7573,6.5918,-0.0073,-0.0201,5.7788,6.9653,-0.0407,9.8210,0.0383,1.6785,0.3052,-0.0610,-0.0407,9.8210,0.0383,1.6785,0.3052,-0.0610,9.7765,0.6688,0.4147,0.0054,0.0029,0.0018,-0.0446,0.6863,0.0900,0.7203,0.1506,0.5862,-0.1789,0.7756,9.4500,-1.0000,2.4200,0.0000,0.0000,0.0000,0.7242,-0.0698,-0.6829,-0.0654,9.7500,-0.0900,0.5700,0.0000,0.0000,0.0000,0.2145,0.2633,-0.9341,0.1091,4.5000,-0.8800,-8.6500,0.0000,0.0000,0.0000,-0.7308,-0.2754,0.5457,-0.3035,9.4500,0.7400,2.4900,0.0000,0.0000,0.0000,0.6471,0.3301,-0.5801,0.3683,9.7200,-0.0300,1.0700,0.0000,0.0000,0.0000,-0.3960,0.1956,0.0595,0.8951,3.9100,-0.4500,8.9600,0.0000,0.0000,0.0000
393190,0,0,1,6.9214,9.7559,3.7573,6.5918,0.0146,-0.0128,5.7788,6.9653,-0.0455,9.8737,0.0120,1.4954,0.4272,0.2136,-0.0455,9.8737,0.0120,1.4954,0.4272,0.2136,9.7853,0.6435,0.3992,0.0057,0.0048,0.0028,-0.0446,0.6863,0.0900,0.7203,0.1506,0.5862,-0.1789,0.7756,9.4500,-1.0000,2.4200,0.0000,0.0000,0.0000,0.7242,-0.0698,-0.6829,-0.0654,9.7500,-0.1100,0.5700,0.0000,0.0000,0.0000,0.2145,0.2633,-0.9341,0.1091,4.5000,-0.8800,-8.6500,0.0000,0.0000,0.0000,-0.7308,-0.2755,0.5457,-0.3035,9.4600,0.7400,2.4900,0.0000,0.0000,0.0000,0.6471,0.3301,-0.5801,0.3683,9.7300,-0.0200,1.0600,0.0000,0.0000,0.0000,-0.3960,0.1956,0.0595,0.8951,3.8900,-0.4400,8.9600,0.0000,0.0000,0.0000
393191,0,0,1,6.9214,9.7559,3.7573,6.5918,-0.0220,-0.0018,5.7788,6.9653,-0.0694,9.8521,0.0120,1.6479,0.5188,0.0000,-0.0694,9.8521,0.0120,1.6479,0.5188,0.0000,9.7853,0.6435,0.3992,0.0057,0.0048,0.0028,-0.0446,0.6863,0.0900,0.7203,0.1506,0.5862,-0.1789,0.7756,9.4500,-1.0000,2.3900,0.0000,0.0000,0.0000,0.7242,-0.0698,-0.6829,-0.0654,9.7700,-0.1200,0.5700,0.0000,0.0000,0.0000,0.2145,0.2633,-0.9341,0.1092,4.5000,-0.8700,-8.6600,0.0000,0.0000,0.0000,-0.7308,-0.2755,0.5457,-0.3035,9.4600,0.7500,2.4600,0.0000,0.0000,0.0000,0.6471,0.3301,-0.5801,0.3683,9.7300,-0.0200,1.0900,0.0000,0.0000,0.0000,-0.3960,0.1956,0.0595,0.8951,3.9000,-0.4400,8.9700,0.0000,0.0000,0.0000
393192,0,0,1,6.9214,9.7559,3.7573,6.5918,0.0000,0.0183,5.7788,6.9653,-0.0144,9.8354,0.0287,1.6174,0.6104,0.0305,-0.0144,9.8354,0.0287,1.6174,0.6104,0.0305,9.7853,0.6435,0.3992,0.0057,0.0048,0.0028,-0.0446,0.6863,0.0900,0.7203,0.1506,0.5862,-0.1789,0.7756,9.4500,-1.0000,2.3900,0.0000,0.0000,0.0000,0.7242,-0.0698,-0.6829,-0.0654,9.7700,-0.0900,0.5600,0.0000,0.0000,0.0000,0.2145,0.2633,-0.9341,0.1092,4.4800,-0.8700,-8.6500,0.0000,0.0000,0.0000,-0.7308,-0.2755,0.5457,-0.3035,9.4600,0.7500,2.4600,0.0000,0.0000,0.0000,0.6471,0.3301,-0.5801,0.3683,9.7300,-0.0200,1.0900,0.0000,0.0000,0.0000,-0.3960,0.1956,0.0595,0.8951,3.9000,-0.4500,8.9600,0.0000,0.0000,0.0000
393193,0,0,1,6.9214,9.7559,3.7573,6.5918,0.0037,0.0037,5.7788,6.9653,-0.0575,9.8090,0.0192,1.5564,0.5188,-0.0916,-0.0575,9.8090,0.0192,1.5564,0.5188,-0.0916,9.7539,0.6650,0.3877,0.0089,-0.0007,0.0010,-0.0446,0.6863,0.0900,0.7203,0.1506,0.5862,-0.1789,0.7756,9.4700,-1.0000,2.3900,0.0000,0.0000,0.0000,0.7242,-0.0698,-0.6829,-0.0654,9.7600,-0.1100,0.5700,0.0000,0.0000,0.0000,0.2145,0.2633,-0.9341,0.1092,4.5000,-0.8700,-8.6400,0.0000,0.0000,0.0000,-0.7308,-0.2755,0.5457,-0.3035,9.4400,0.7600,2.4500,0.0000,0.0000,0.0000,0.6471,0.3301,-0.5801,0.3683,9.7300,-0.0200,1.0900,0.0000,0.0000,0.0000,-0.3960,0.1956,0.0595,0.8951,3.9000,-0.4500,8.9600,0.0000,0.0000,0.0000
393194,0,0,1,6.9214,9.7559,3.7573,6.5918,0.0037,0.0018,5.7788,6.9653,0.0168,9.8689,0.0287,1.4648,0.3052,0.2747,0.0168,9.8689,0.0287,1.4648,0.3052,0.2747,9.7539,0.6650,0.3877,0.0089,-0.0007,0.0010,-0.0446,0.6863,0.0900,0.7203,0.1506,0.5862,-0.1789,0.7756,9.4700,-0.9900,2.3900,0.0000,0.0000,0.0000,0.7242,-0.0698,-0.6829,-0.0654,9.7600,-0.1100,0.5700,0.0000,0.0000,0.0000,0.2145,0.2633,-0.9341,0.1092,4.4800,-0.8700,-8.6400,0.0000,0.0000,0.0000,-0.7308,-0.2755,0.5457,-0.3035,9.4400,0.7400,2.4400,0.0000,0.0000,0.0000,0.6471,0.3301,-0.5801,0.3683,9.7300,0.0100,1.1000,0.0000,0.0000,0.0000,-0.3960,0.1956,0.0595,0.8951,3.9000,-0.4600,8.9700,0.0000,0.0000,0.0000
393195,0,0,1,6.9214,9.7559,3.7573,6.5918,0.0073,0.0110,5.7788,6.9653,-0.0335,9.8474,0.0670,1.5259,0.3357,0.0610,-0.0335,9.8474,0.0670,1.5259,0.3357,0.0610,9.7820,0.6522,0.3965,0.0083,0.0025,0.0017,-0.0446,0.6863,0.0901,0.7203,0.1506,0.5862,-0.1789,0.7756,9.4700,-0.9900,2.3900,0.0000,0.0000,0.0000,0.7242,-0.0698,-0.6829,-0.0654,9.7700,-0.1200,0.5600,0.0000,0.0000,0.0000,0.2145,0.2633,-0.9341,0.1092,4.4800,-0.8700,-8.6400,0.0000,0.0000,0.0000,-0.7308,-0.2755,0.5457,-0.3035,9.4500,0.7500,2.4300,0.0000,0.0000,0.0000,0.6471,0.3301,-0.5801,0.3683,9.7400,0.0000,1.0900,0.0000,0.0000,0.0000,-0.3960,0.1956,0.0595,0.8951,3.8900,-0.4500,8.9800,0.0000,0.0000,0.0000
393196,0,0,1,6.9214,9.7559,3.7573,6.5918,-0.0165,0.0110,5.7788,6.9653,-0.0622,9.7779,0.0263,1.5869,0.4578,-0.0305,-0.0622,9.7779,0.0263,1.5869,0.4578,-0.0305,9.7820,0.6522,0.3965,0.0083,0.0025,0.0017,-0.0446,0.6863,0.0901,0.7203,0.1506,0.5862,-0.1789,0.7756,9.4700,-0.9900,2.4100,0.0000,0.0000,0.0000,0.7242,-0.0698,-0.6828,-0.0654,9.7700,-0.1500,0.5800,0.0000,0.0000,0.0000,0.2145,0.2633,-0.9341,0.1092,4.4800,-0.8700,-8.6500,0.0000,0.0000,0.0000,-0.7308,-0.2755,0.5457,-0.3035,9.4500,0.7600,2.4200,0.0000,0.0000,0.0000,0.6471,0.3301,-0.5801,0.3683,9.7300,0.0100,1.1000,0.0000,0.0000,0.0000,-0.3960,0.1956,0.0595,0.8951,3.9100,-0.4700,8.9800,0.0000,0.0000,0.0000
393197,0,0,1,6.9214,9.7559,3.7573,6.5918,0.0128,-0.0183,5.7788,6.9653,-0.0551,9.8330,0.0814,1.4038,0.2441,0.0916,-0.0551,9.8330,0.0814,1.4038,0.2441,0.0916,9.7820,0.6522,0.3965,0.0083,0.0025,0.0017,-0.0446,0.6863,0.0901,0.7203,0.1506,0.5862,-0.1789,0.7756,9.4700,-0.9900,2.3900,0.0000,0.0000,0.0000,0.7242,-0.0698,-0.6828,-0.0654,9.7700,-0.1300,0.5700,0.0000,0.0000,0.0000,0.2145,0.2633,-0.9341,0.1092,4.4800,-0.8600,-8.6500,0.0000,0.0000,0.0000,-0.7308,-0.2755,0.5457,-0.3035,9.4500,0.7300,2.4400,0.0000,0.0000,0.0000,0.6471,0.3301,-0.5801,0.3683,9.7200,0.0000,1.0600,0.0000,0.0000,0.0000,-0.3960,0.1956,0.0595,0.8951,3.9100,-0.4700,8.9800,0.0000,0.0000,0.0000
393198,0,0,1,6.9214,9.7559,3.7573,6.5918,-0.0201,0.0220,5.7788,6.9653,-0.0575,9.8330,0.0000,1.5869,0.4578,0.0000,-0.0575,9.8330,0.0000,1.5869,0.4578,0.0000,9.7659,0.6646,0.4111,0.0072,0.0002,0.0020,-0.0446,0.6863,0.0901,0.7203,0.1506,0.5862,-0.1789,0.7756,9.4400,-1.0200,2.4000,0.0000,0.0000,0.0000,0.7242,-0.0698,-0.6828,-0.0654,9.7600,-0.1200,0.5700,0.0000,0.0000,0.0000,0.2145,0.2633,-0.9341,0.1092,4.4900,-0.8700,-8.6400,0.0000,0.0000,0.0000,-0.7308,-0.2755,0.5457,-0.3035,9.4500,0.7300,2.4400,0.0000,0.0000,0.0000,0.6471,0.3301,-0.5801,0.3683,9.7200,0.0000,1.0600,0.0000,0.0000,0.0000,-0.3960,0.1956,0.0595,0.8951,3.9000,-0.4600,8.9700,0.0000,0.0000,0.0000
393199,0,0,1,6.9214,9.7778,3.7354,6.5918,-0.0055,-0.0018,5.7788,6.9653,0.0551,9.8617,0.0455,1.7090,0.4272,0.0000,0.0551,9.8617,0.0455,1.7090,0.4272,0.0000,9.7659,0.6646,0.4111,0.0072,0.0002,0.0020,-0.0446,0.6863,0.0901,0.7203,0.1506,0.5862,-0.1789,0.7756,9.4500,-1.0000,2.4000,0.0000,0.0000,0.0000,0.7242,-0.0698,-0.6828,-0.0654,9.7600,-0.1200,0.5700,0.0000,0.0000,0.0000,0.2145,0.2633,-0.9341,0.1092,4.4900,-0.8800,-8.6500,0.0000,0.0000,0.0000,-0.7308,-0.2754,0.5457,-0.3035,9.4800,0.7600,2.4900,0.0000,0.0000,0.0000,0.6471,0.3301,-0.5801,0.3683,9.7500,-0.0100,1.0500,0.0000,0.0000,0.0000,-0.3960,0.1956,0.0595,0.8951,3.9100,-0.4700,8.9700,0.0000,0.0000,0.0000
393200,0,0,1,6.9214,9.7778,3.7354,6.5918,0.0055,-0.0018,5.7788,6.9653,-0.0790,9.8186,0.0335,1.3733,0.3967,0.0305,-0.0790,9.8186,0.0335,1.3733,0.3967,0.0305,9.7794,0.6392,0.4030,0.0014,0.0023,0.0055,-0.0446,0.6863,0.0900,0.7203,0.1506,0.5862,-0.1789,0.7756,9.4500,-1.0000,2.4000,0.0000,0.0000,0.0000,0.7242,-0.0698,-0.6828,-0.0654,9.7700,-0.1200,0.5700,0.0000,0.0000,0.0000,0.2145,0.2633,-0.9341,0.1092,4.4900,-0.8800,-8.6500,0.0000,0.0000,0.0000,-0.7308,-0.2754,0.5457,-0.3035,9.4600,0.7600,2.5000,0.0000,0.0000,0.0000,0.6471,0.3301,-0.5800,0.3683,9.7200,-0.0100,1.0600,0.0000,0.0000,0.0000,-0.3960,0.1956,0.0595,0.8951,3.9000,-0.4600,8.9600,0.0000,0.0000,0.0000
393201,0,0,1,6.9214,9.7778,3.7354,6.5918,-0.0165,0.0092,5.7788,6.9653,-0.0168,9.8019,0.0168,1.5869,0.5188,0.1831,-0.0168,9.8019,0.0168,1.5869,0.5188,0.1831,9.7794,0.6392,0.4030,0.0014,0.0023,0.0055,-0.0446,0.6863,0.0900,0.7203,0.1506,0.5862,-0.1789,0.7756,9.4500,-0.9900,2.4100,0.0000,0.0000,0.0000,0.7242,-0.0698,-0.6828,-0.0654,9.7500,-0.1200,0.5600,0.0000,0.0000,0.0000,0.2145,0.2633,-0.9341,0.1092,4.4900,-0.8700,-8.6600,0.0000,0.0000,0.0000,-0.7308,-0.2754,0.5457,-0.3035,9.4300,0.7600,2.4900,0.0000,0.0000,0.0000,0.6471,0.3301,-0.5800,0.3683,9.7200,-0.0100,1.0600,0.0000,0.0000,0.0000,-0.3960,0.1956,0.0596,0.8951,3.9000,-0.4700,8.9700,0.0000,0.0000,0.0000
393202,0,0,1,6.9214,9.7778,3.7354,6.5918,-0.0037,0.0110,5.7788,6.9653,-0.0455,9.8354,0.0814,1.6174,0.5493,-0.0610,-0.0455,9.8354,0.0814,1.6174,0.5493,-0.0610,9.7794,0.6392,0.4030,0.0014,0.0023,0.0055,-0.0446,0.6863,0.0900,0.7203,0.1506,0.5862,-0.1789,0.7756,9.4700,-1.0000,2.4100,0.0000,0.0000,0.0000,0.7242,-0.0698,-0.6828,-0.0654,9.7600,-0.1300,0.5800,0.0000,0.0000,0.0000,0.2145,0.2633,-0.9341,0.1092,4.4900,-0.8800,-8.6600,0.0000,0.0000,0.0000,-0.7308,-0.2754,0.5457,-0.3035,9.4400,0.7400,2.4500,0.0000,0.0000,0.0000,0.6471,0.3302,-0.5800,0.3683,9.7300,-0.0100,1.0700,0.0000,0.0000,0.0000,-0.3960,0.1956,0.0596,0.8951,3.9000,-0.4700,8.9700,0.0000,0.0000,0.0000
393203,0,0,1,6.9214,9.7778,3.7354,6.5918,0.0183,0.0000,5.7788,6.9653,-0.0766,9.7971,0.0287,1.5259,0.4578,0.0000,-0.0766,9.7971,0.0287,1.5259,0.4578,0.0000,9.8129,0.6448,0.3969,0.0042,-0.0003,0.0013,-0.0446,0.6863,0.0900,0.7203,0.1506,0.5862,-0.1789,0.7756,9.4500,-0.9900,2.3900,0.0000,0.0000,0.0000,0.7242,-0.0698,-0.6828,-0.0654,9.7600,-0.1300,0.5800,0.0000,0.0000,0.0000,0.2145,0.2633,-0.9341,0.1092,4.4900,-0.8700,-8.6600,0.0000,0.0000,0.0000,-0.7308,-0.2754,0.5457,-0.3035,9.4400,0.7400,2.4500,0.0000,0.0000,0.0000,0.6471,0.3302,-0.5800,0.3683,9.7300,-0.0100,1.0700,0.0000,0.0000,0.0000,-0.3960,0.1956,0.0596,0.8951,3.8900,-0.4600,8.9600,0.0000,0.0000,0.0000
393204,0,0,1,6.9214,9.7778,3.7354,6.5918,-0.0183,0.0055,5.7788,6.9653,-0.0551,9.8090,0.0742,1.2817,0.4578,0.0916,-0.0551,9.8090,0.0742,1.2817,0.4578,0.0916,9.8129,0.6448,0.3969,0.0042,-0.0003,0.0013,-0.0446,0.6863,0.0900,0.7203,0.1506,0.5862,-0.1789,0.7756,9.4300,-0.9900,2.4000,0.0000,0.0000,0.0000,0.7242,-0.0698,-0.6828,-0.0654,9.7700,-0.1200,0.5800,0.0000,0.0000,0.0000,0.2145,0.2633,-0.9341,0.1092,4.4800,-0.8800,-8.6500,0.0000,0.0000,0.0000,-0.7308,-0.2754,0.5457,-0.3035,9.4300,0.7400,2.4400,0.0000,0.0000,0.0000,0.6471,0.3302,-0.5800,0.3683,9.7300,-0.0100,1.0600,0.0000,0.0000,0.0000,-0.3960,0.1956,0.0596,0.8951,3.9100,-0.4600,8.9700,0.0000,0.0000,0.0000
393205,0,0,1,6.9214,9.7778,3.7354,6.5918,-0.0018,0.0146,5.7788,6.9653,-0.0599,9.8067,0.0144,1.6785,0.4883,0.0000,-0.0599,9.8067,0.0144,1.6785,0.4883,0.0000,9.7773,0.6572,0.3896,0.0053,0.0023,0.0039,-0.0446,0.6863,0.0900,0.7203,0.1506,0.5862,-0.1789,0.7756,9.4300,-0.9900,2.4000,0.0000,0.0000,0.0000,0.7242,-0.0698,-0.6828,-0.0654,9.7600,-0.1000,0.5600,0.0000,0.0000,0.0000,0.2145,0.2633,-0.9341,0.1092,4.4800,-0.8800,-8.6500,0.0000,0.0000,0.0000,-0.7308,-0.2754,0.5456,-0.3035,9.4700,0.7400,2.4300,0.0000,0.0000,0.0000,0.6471,0.3302,-0.5800,0.3683,9.7100,0.0000,1.0500,0.0000,0.0000,0.0000,-0.3960,0.1956,0.0596,0.8951,3.8900,-0.4600,8.9600,0.0000,0.0000,0.0000
393206,0,0,1,6.9214,9.7778,3.7354,6.5918,-0.0110,0.0110,5.7788,6.9653,-0.0263,9.8282,0.0383,1.4648,0.4883,-0.0610,-0.0263,9.8282,0.0383,1.4648,0.4883,-0.0610,9.7773,0.6572,0.3896,0.0053,0.0023,0.0039,-0.0446,0.6863,0.0900,0.7203,0.1506,0.5862,-0.1789,0.7756,9.4500,-0.9800,2.3900,0.0000,0.0000,0.0000,0.7242,-0.0699,-0.6828,-0.0654,9.7700,-0.1200,0.5700,0.0000,0.0000,0.0000,0.2145,0.2633,-0.9341,0.1092,4.4900,-0.8700,-8.6600,0.0000,0.0000,0.0000,-0.7308,-0.2754,0.5456,-0.3035,9.4500,0.7100,2.4300,0.0000,0.0000,0.0000,0.6471,0.3302,-0.5800,0.3683,9.7200,-0.0200,1.0700,0.0000,0.0000,0.0000,-0.3960,0.1956,0.0596,0.8951,3.9200,-0.4600,8.9700,0.0000,0.0000,0.0000
393207,0,0,1,6.9214,9.7778,3.7354,6.5918,-0.0073,0.0000,5.7788,6.9653,-0.0766,9.8210,0.0622,1.4038,0.6104,0.0000,-0.0766,9.8210,0.0622,1.4038,0.6104,0.0000,9.7773,0.6572,0.3896,0.0053,0.0023,0.0039,-0.0446,0.6863,0.0900,0.7203,0.1506,0.5862,-0.1789,0.7756,9.4300,-0.9800,2.4200,0.0000,0.0000,0.0000,0.7242,-0.0699,-0.6828,-0.0654,9.7700,-0.1100,0.5700,0.0000,0.0000,0.0000,0.2145,0.2633,-0.9341,0.1092,4.4900,-0.8800,-8.6500,0.0000,0.0000,0.0000,-0.7308,-0.2754,0.5456,-0.3035,9.4500,0.7000,2.4200,0.0000,0.0000,0.0000,0.6471,0.3302,-0.5800,0.3683,9.7300,0.0000,1.0600,0.0000,0.0000,0.0000,-0.3960,0.1956,0.0596,0.8951,3.9000,-0.4700,8.9600,0.0000,0.0000,0.0000
393208,0,0,1,6.9214,9.7778,3.7354,6.5918,-0.0092,0.0128,5.7788,6.9653,-0.0527,9.8617,0.0263,1.5259,0.5493,0.0000,-0.0527,9.8617,0.0263,1.5259,0.5493,0.0000,9.7459,0.6683,0.3873,0.0004,-0.0008,0.0024,-0.0446,0.6863,0.0900,0.7203,0.1506,0.5861,-0.1789,0.7756,9.4200,-0.9900,2.4100,0.0000,0.0000,0.0000,0.7242,-0.0699,-0.6828,-0.0654,9.7700,-0.1100,0.5700,0.0000,0.0000,0.0000,0.2145,0.2633,-0.9341,0.1092,4.4900,-0.8500,-8.6500,0.0000,0.0000,0.0000,-0.7308,-0.2754,0.5456,-0.3035,9.4500,0.7000,2.4200,0.0000,0.0000,0.0000,0.6471,0.3302,-0.5800,0.3683,9.7300,0.0000,1.0600,0.0000,0.0000,0.0000,-0.3960,0.1956,0.0596,0.8951,3.9000,-0.4700,8.9600,0.0000,0.0000,0.0000
393209,0,0,1,6.9214,9.7778,3.7354,6.5918,0.0055,0.0220,5.7788,6.9653,-0.0287,9.8114,0.0120,1.4648,0.5493,-0.0305,-0.0287,9.8114,0.0120,1.4648,0.5493,-0.0305,9.7459,0.6683,0.3873,0.0004,-0.0008,0.0024,-0.0446,0.6863,0.0900,0.7203,0.1506,0.5861,-0.1789,0.7756,9.4200,-0.9900,2.4100,0.0000,0.0000,0.0000,0.7242,-0.0699,-0.6828,-0.0654,9.7900,-0.1100,0.5700,0.0000,0.0000,0.0000,0.2145,0.2633,-0.9341,0.1092,4.5000,-0.8700,-8.6500,0.0000,0.0000,0.0000,-0.7308,-0.2754,0.5456,-0.3035,9.4100,0.6900,2.4100,0.0000,0.0000,0.0000,0.6471,0.3302,-0.5800,0.3683,9.7300,-0.0200,1.0500,0.0000,0.0000,0.0000,-0.3960,0.1956,0.0596,0.8951,3.9000,-0.4500,8.9500,0.0000,0.0000,0.0000
393210,0,0,1,6.9214,9.7778,3.7354,6.5918,-0.0110,-0.0092,5.7788,6.9653,-0.0239,9.8402,0.0407,1.3428,0.7629,-0.0916,-0.0239,9.8402,0.0407,1.3428,0.7629,-0.0916,9.7425,0.6550,0.3736,0.0005,-0.0015,0.0028,-0.0446,0.6863,0.0900,0.7203,0.1506,0.5862,-0.1789,0.7756,9.4100,-0.9800,2.4000,0.0000,0.0000,0.0000,0.7242,-0.0699,-0.6828,-0.0654,9.7600,-0.1100,0.5900,0.0000,0.0000,0.0000,0.2145,0.2633,-0.9341,0.1092,4.5000,-0.8700,-8.6500,0.0000,0.0000,0.0000,-0.7308,-0.2754,0.5456,-0.3035,9.4100,0.6900,2.4200,0.0000,0.0000,0.0000,0.6471,0.3302,-0.5800,0.3683,9.7300,-0.0200,1.0500,0.0000,0.0000,0.0000,-0.3960,0.1956,0.0596,0.8951,3.8900,-0.4700,8.9700,0.0000,0.0000,0.0000
393211,0,0,1,6.9214,9.7778,3.7354,6.5918,0.0110,-0.0073,5.7788,6.9653,-0.0551,9.7779,0.0000,1.2817,0.5493,0.0916,-0.0551,9.7779,0.0000,1.2817,0.5493,0.0916,9.7425,0.6550,0.3736,0.0005,-0.0015,0.0028,-0.0446,0.6863,0.0900,0.7203,0.1506,0.5862,-0.1788,0.7756,9.4500,-0.9600,2.4100,0.0000,0.0000,0.0000,0.7242,-0.0699,-0.6828,-0.0654,9.7400,-0.1200,0.5700,0.0000,0.0000,0.0000,0.2145,0.2633,-0.9341,0.1092,4.4700,-0.8800,-8.6500,0.0000,0.0000,0.0000,-0.7308,-0.2754,0.5456,-0.3035,9.4400,0.7100,2.4100,0.0000,0.0000,0.0000,0.6471,0.3302,-0.5800,0.3683,9.7300,0.0000,1.0600,0.0000,0.0000,0.0000,-0.3960,0.1956,0.0596,0.8951,3.8900,-0.4700,8.9800,0.0000,0.0000,0.0000
393212,0,0,1,6.9214,9.7778,3.7354,6.5918,-0.0073,0.0110,5.7788,6.9653,-0.0287,9.8282,0.0527,1.5259,0.6409,0.0000,-0.0287,9.8282,0.0527,1.5259,0.6409,0.0000,9.7425,0.6550,0.3736,0.0005,-0.0015,0.0028,-0.0446,0.6863,0.0900,0.7203,0.1506,0.5861,-0.1788,0.7756,9.4300,-0.9400,2.4000,0.0000,0.0000,0.0000,0.7242,-0.0699,-0.6828,-0.0654,9.7500,-0.1100,0.5800,0.0000,0.0000,0.0000,0.2145,0.2633,-0.9341,0.1092,4.5000,-0.8600,-8.6500,0.0000,0.0000,0.0000,-0.7308,-0.2754,0.5456,-0.3035,9.4500,0.7200,2.4200,0.0000,0.0000,0.0000,0.6471,0.3302,-0.5800,0.3683,9.7300,0.0000,1.0600,0.0000,0.0000,0.0000,-0.3960,0.1956,0.0596,0.8951,3.9100,-0.4800,8.9700,0.0000,0.0000,0.0000
393213,0,0,1,6.9214,9.7778,3.7354,6.5918,-0.0146,-0.0128,5.7788,6.9653,-0.0168,9.8258,0.0407,1.4038,0.7019,-0.0610,-0.0168,9.8258,0.0407,1.4038,0.7019,-0.0610,9.7619,0.6574,0.3879,-0.0013,-0.0010,0.0023,-0.0446,0.6863,0.0900,0.7203,0.1506,0.5861,-0.1788,0.7756,9.4300,-0.9600,2.4200,0.0000,0.0000,0.0000,0.7242,-0.0699,-0.6828,-0.0654,9.7700,-0.1100,0.5900,0.0000,0.0000,0.0000,0.2145,0.2633,-0.9341,0.1092,4.4900,-0.8600,-8.6500,0.0000,0.0000,0.0000,-0.7308,-0.2754,0.5456,-0.3035,9.4500,0.7200,2.4200,0.0000,0.0000,0.0000,0.6471,0.3302,-0.5800,0.3683,9.7200,-0.0100,1.0600,0.0000,0.0000,0.0000,-0.3960,0.1956,0.0596,0.8951,3.9100,-0.4800,8.9700,0.0000,0.0000,0.0000
393214,0,0,1,6.9214,9.7778,3.7354,6.5918,-0.0110,-0.0201,5.7788,6.9653,-0.0335,9.8330,0.0575,1.2817,0.5493,0.0000,-0.0335,9.8330,0.0575,1.2817,0.5493,0.0000,9.7619,0.6574,0.3879,-0.0013,-0.0010,0.0023,-0.0446,0.6863,0.0900,0.7203,0.1506,0.5861,-0.1788,0.7756,9.4300,-0.9500,2.4200,0.0000,0.0000,0.0000,0.7242,-0.0699,-0.6828,-0.0654,9.7700,-0.1100,0.5900,0.0000,0.0000,0.0000,0.2145,0.2633,-0.9341,0.1092,4.4900,-0.8900,-8.6600,0.0000,0.0000,0.0000,-0.7308,-0.2754,0.5456,-0.3035,9.4400,0.7200,2.4400,0.0000,0.0000,0.0000,0.6471,0.3302,-0.5800,0.3683,9.7200,0.0000,1.0600,0.0000,0.0000,0.0000,-0.3960,0.1956,0.0596,0.8951,3.8800,-0.4600,8.9700,0.0000,0.0000,0.0000
393215,0,0,1,6.9214,9.7778,3.7354,6.5918,0.0055,-0.0165,5.7788,6.9653,-0.0072,9.8713,0.0335,1.5564,0.4578,0.0000,-0.0072,9.8713,0.0335,1.5564,0.4578,0.0000,9.7689,0.6506,0.3764,0.0024,0.0009,0.0013,-0.0446,0.6863,0.0900,0.7204,0.1506,0.5861,-0.1788,0.7756,9.4100,-0.9700,2.4200,0.0000,0.0000,0.0000,0.7242,-0.0699,-0.6828,-0.0654,9.7500,-0.1000,0.5800,0.0000,0.0000,0.0000,0.2145,0.2633,-0.9341,0.1092,4.4900,-0.8900,-8.6600,0.0000,0.0000,0.0000,-0.7308,-0.2754,0.5456,-0.3035,9.4400,0.7200,2.4400,0.0000,0.0000,0.0000,0.6471,0.3302,-0.5800,0.3683,9.7200,0.0000,1.0500,0.0000,0.0000,0.0000,-0.3960,0.1956,0.0596,0.8951,3.9000,-0.4700,8.9700,0.0000,0.0000,0.0000
393216,0,0,1,6.9214,9.7778,3.7354,6.5918,0.0165,0.0073,5.7788,6.9653,-0.0335,9.8282,0.0479,1.4954,0.6409,-0.0610,-0.0335,9.8282,0.0479,1.4954,0.6409,-0.0610,9.7689,0.6506,0.3764,0.0024,0.0009,0.0013,-0.0446,0.6863,0.0900,0.7204,0.1506,0.5861,-0.1788,0.7756,9.4100,-0.9700,2.4200,0.0000,0.0000,0.0000,0.7242,-0.0699,-0.6828,-0.0654,9.7500,-0.1300,0.5800,0.0000,0.0000,0.0000,0.2145,0.2633,-0.9341,0.1092,4.4900,-0.8800,-8.6500,0.0000,0.0000,0.0000,-0.7308,-0.2754,0.5456,-0.3035,9.4500,0.7200,2.4600,0.0000,0.0000,0.0000,0.6471,0.3302,-0.5800,0.3683,9.7200,0.0000,1.0600,0.0000,0.0000,0.0000,-0.3960,0.1956,0.0596,0.8951,3.8900,-0.4600,8.9600,0.0000,0.0000,0.0000
393217,0,0,1,6.9214,9.7778,3.7354,6.5918,0.0037,0.0110,5.7788,6.9653,-0.0048,9.8952,0.0383,1.4343,0.6104,0.0000,-0.0048,9.8952,0.0383,1.4343,0.6104,0.0000,9.7689,0.6770,0.4350,-0.0007,-0.0037,0.0026,-0.0446,0.6863,0.0900,0.7204,0.1506,0.5861,-0.1788,0.7756,9.4200,-0.9500,2.4100,0.0000,0.0000,0.0000,0.7242,-0.0699,-0.6828,-0.0654,9.7600,-0.1100,0.5700,0.0000,0.0000,0.0000,0.2145,0.2633,-0.9341,0.1092,4.4800,-0.8800,-8.6400,0.0000,0.0000,0.0000,-0.7308,-0.2754,0.5456,-0.3035,9.4500,0.7200,2.4600,0.0000,0.0000,0.0000,0.6471,0.3302,-0.5800,0.3683,9.7200,0.0000,1.0600,0.0000,0.0000,0.0000,-0.3960,0.1956,0.0596,0.8951,3.8800,-0.4700,8.9700,0.0000,0.0000,0.0000
393218,0,0,1,6.9214,9.7778,3.7354,6.5918,-0.0146,0.0055,5.7788,6.9653,-0.0694,9.8785,0.0335,1.4038,0.7019,-0.0305,-0.0694,9.8785,0.0335,1.4038,0.7019,-0.0305,9.7689,0.6770,0.4350,-0.0007,-0.0037,0.0026,-0.0446,0.6863,0.0900,0.7204,0.1506,0.5861,-0.1788,0.7756,9.4300,-0.9400,2.4300,0.0000,0.0000,0.0000,0.7242,-0.0699,-0.6828,-0.0654,9.7700,-0.1100,0.5700,0.0000,0.0000,0.0000,0.2145,0.2633,-0.9341,0.1092,4.4700,-0.8700,-8.6500,0.0000,0.0000,0.0000,-0.7308,-0.2754,0.5456,-0.3035,9.4300,0.7300,2.4600,0.0000,0.0000,0.0000,0.6471,0.3302,-0.5800,0.3683,9.7300,-0.0200,1.0600,0.0000,0.0000,0.0000,-0.3960,0.1956,0.0596,0.8951,3.8800,-0.4700,8.9700,0.0000,0.0000,0.0000
393219,0,0,1,6.9214,9.7778,3.7354,6.5918,0.0037,-0.0220,5.7788,6.9653,-0.0479,9.8090,0.0694,1.3733,0.4578,-0.0610,-0.0479,9.8090,0.0694,1.3733,0.4578,-0.0610,9.7689,0.6770,0.4350,-0.0007,-0.0037,0.0026,-0.0446,0.6863,0.0900,0.7204,0.1506,0.5861,-0.1788,0.7756,9.4200,-0.9400,2.4100,0.0000,0.0000,0.0000,0.7242,-0.0699,-0.6828,-0.0654,9.7700,-0.1100,0.5700,0.0000,0.0000,0.0000,0.2145,0.2633,-0.9341,0.1092,4.4900,-0.8800,-8.6600,0.0000,0.0000,0.0000,-0.7309,-0.2754,0.5456,-0.3035,9.4500,0.7100,2.4800,0.0000,0.0000,0.0000,0.6471,0.3302,-0.5800,0.3683,9.7300,0.0000,1.0500,0.0000,0.0000,0.0000,-0.3960,0.1956,0.0596,0.8951,3.8800,-0.4800,8.9700,0.0000,0.0000,0.0000
393220,0,0,1,6.9214,9.7778,3.7354,6.5918,-0.0092,-0.0201,5.7788,6.9653,-0.0215,9.8354,0.0551,1.4038,0.6104,-0.0305,-0.0215,9.8354,0.0551,1.4038,0.6104,-0.0305,9.7080,0.6884,0.3921,-0.0009,-0.0032,-0.0013,-0.0446,0.6863,0.0900,0.7204,0.1506,0.5861,-0.1788,0.7756,9.4400,-0.9600,2.4200,0.0000,0.0000,0.0000,0.7242,-0.0699,-0.6828,-0.0653,9.7600,-0.1100,0.5700,0.0000,0.0000,0.0000,0.2145,0.2633,-0.9341,0.1092,4.4900,-0.8800,-8.6600,0.0000,0.0000,0.0000,-0.7309,-0.2754,0.5456,-0.3035,9.4400,0.7100,2.4700,0.0000,0.0000,0.0000,0.6471,0.3302,-0.5800,0.3683,9.7200,-0.0300,1.0600,0.0000,0.0000,0.0000,-0.3960,0.1956,0.0596,0.8951,3.8900,-0.4800,8.9700,0.0000,0.0000,0.0000
393221,0,0,1,6.9214,9.7778,3.7354,6.5918,0.0201,-0.0037,5.7788,6.9653,-0.0383,9.8330,0.0622,1.3733,0.7019,-0.2136,-0.0383,9.8330,0.0622,1.3733,0.7019,-0.2136,9.7080,0.6884,0.3921,-0.0009,-0.0032,-0.0013,-0.0446,0.6863,0.0900,0.7204,0.1506,0.5861,-0.1788,0.7756,9.4400,-0.9600,2.4200,0.0000,0.0000,0.0000,0.7242,-0.0699,-0.6828,-0.0653,9.7700,-0.1200,0.5600,0.0000,0.0000,0.0000,0.2145,0.2633,-0.9341,0.1092,4.5100,-0.8800,-8.6500,0.0000,0.0000,0.0000,-0.7309,-0.2754,0.5456,-0.3035,9.4300,0.7100,2.4800,0.0000,0.0000,0.0000,0.6471,0.3302,-0.5800,0.3683,9.7300,-0.0200,1.0600,0.0000,0.0000,0.0000,-0.3960,0.1956,0.0596,0.8951,3.8800,-0.4900,8.9500,0.0000,0.0000,0.0000
393222,0,0,1,6.9214,9.7778,3.7354,6.5918,-0.0092,0.0000,5.7788,6.9653,-0.0575,9.8019,0.0599,1.3428,0.4883,-0.0610,-0.0575,9.8019,0.0599,1.3428,0.4883,-0.0610,9.7735,0.6486,0.4088,-0.0011,-0.0012,0.0029,-0.0446,0.6863,0.0900,0.7204,0.1505,0.5861,-0.1788,0.7757,9.4400,-0.9400,2.4000,0.0000,0.0000,0.0000,0.7242,-0.0699,-0.6828,-0.0653,9.7600,-0.1100,0.5900,0.0000,0.0000,0.0000,0.2145,0.2633,-0.9341,0.1092,4.4900,-0.8600,-8.6500,0.0000,0.0000,0.0000,-0.7309,-0.2754,0.5456,-0.3035,9.4300,0.7100,2.4800,0.0000,0.0000,0.0000,0.6471,0.3302,-0.5800,0.3683,9.7300,-0.0200,1.0600,0.0000,0.0000,0.0000,-0.3960,0.1956,0.0596,0.8951,3.8800,-0.4900,8.9500,0.0000,0.0000,0.0000
393223,0,0,1,6.9214,9.7778,3.7354,6.5918,-0.0128,-0.0128,5.7788,6.9653,-0.0215,9.8426,0.0479,1.4648,0.4883,-0.1221,-0.0215,9.8426,0.0479,1.4648,0.4883,-0.1221,9.7735,0.6486,0.4088,-0.0011,-0.0012,0.0029,-0.0446,0.6863,0.0900,0.7204,0.1505,0.5861,-0.1788,0.7757,9.4400,-0.9600,2.4200,0.0000,0.0000,0.0000,0.7242,-0.0699,-0.6828,-0.0653,9.7600,-0.1100,0.5900,0.0000,0.0000,0.0000,0.2145,0.2633,-0.9341,0.1092,4.5000,-0.8800,-8.6500,0.0000,0.0000,0.0000,-0.7309,-0.2754,0.5456,-0.3035,9.4300,0.7000,2.4600,0.0000,0.0000,0.0000,0.6471,0.3302,-0.5800,0.3683,9.7300,-0.0300,1.0600,0.0000,0.0000,0.0000,-0.3960,0.1956,0.0596,0.8951,3.8800,-0.4800,8.9700,0.0000,0.0000,0.0000
393224,0,0,1,6.9214,9.7778,3.7354,6.5918,-0.0201,0.0092,5.7788,6.9653,0.0215,9.8641,0.0575,1.2512,0.4578,0.0305,0.0215,9.8641,0.0575,1.2512,0.4578,0.0305,9.7735,0.6486,0.4088,-0.0011,-0.0012,0.0029,-0.0446,0.6863,0.0900,0.7204,0.1505,0.5861,-0.1788,0.7757,9.4500,-0.9600,2.3900,0.0000,0.0000,0.0000,0.7242,-0.0699,-0.6828,-0.0653,9.7700,-0.1300,0.5700,0.0000,0.0000,0.0000,0.2145,0.2633,-0.9341,0.1092,4.4900,-0.8700,-8.6700,0.0000,0.0000,0.0000,-0.7309,-0.2754,0.5456,-0.3035,9.4500,0.7100,2.4700,0.0000,0.0000,0.0000,0.6471,0.3302,-0.5800,0.3683,9.7300,-0.0200,1.0800,0.0000,0.0000,0.0000,-0.3960,0.1956,0.0596,0.8951,3.8700,-0.4700,8.9700,0.0000,0.0000,0.0000
393225,0,0,1,6.9214,9.7778,3.7354,6.5918,0.0275,0.0165,5.7788,6.9653,0.0072,9.8282,0.0814,1.2512,0.6409,0.1526,0.0072,9.8282,0.0814,1.2512,0.6409,0.1526,9.7690,0.6841,0.4217,-0.0018,-0.0057,0.0008,-0.0446,0.6863,0.0900,0.7204,0.1505,0.5861,-0.1788,0.7757,9.4500,-0.9600,2.3900,0.0000,0.0000,0.0000,0.7242,-0.0699,-0.6828,-0.0653,9.7800,-0.1200,0.5800,0.0000,0.0000,0.0000,0.2145,0.2633,-0.9341,0.1092,4.4900,-0.8700,-8.6700,0.0000,0.0000,0.0000,-0.7309,-0.2754,0.5456,-0.3035,9.4500,0.7100,2.4800,0.0000,0.0000,0.0000,0.6471,0.3302,-0.5800,0.3683,9.7300,-0.0200,1.0800,0.0000,0.0000,0.0000,-0.3960,0.1956,0.0596,0.8951,3.8900,-0.4600,8.9800,0.0000,0.0000,0.0000
393226,0,0,1,6.9214,9.7778,3.7354,6.5918,0.0183,-0.0238,5.7788,6.9653,-0.0335,9.8497,0.1030,1.3733,0.6104,-0.0610,-0.0335,9.8497,0.1030,1.3733,0.6104,-0.0610,9.7690,0.6841,0.4217,-0.0018,-0.0057,0.0008,-0.0446,0.6863,0.0900,0.7204,0.1505,0.5861,-0.1788,0.7757,9.4500,-0.9500,2.4100,0.0000,0.0000,0.0000,0.7242,-0.0699,-0.6828,-0.0653,9.7600,-0.1200,0.5700,0.0000,0.0000,0.0000,0.2145,0.2633,-0.9341,0.1092,4.4900,-0.8500,-8.6500,0.0000,0.0000,0.0000,-0.7309,-0.2753,0.5456,-0.3035,9.4500,0.7200,2.4900,0.0000,0.0000,0.0000,0.6471,0.3301,-0.5800,0.3683,9.7500,-0.0200,1.0800,0.0000,0.0000,0.0000,-0.3960,0.1956,0.0596,0.8951,3.8900,-0.4700,8.9700,0.0000,0.0000,0.0000
393227,0,0,1,6.9214,9.7778,3.7354,6.5918,0.0128,0.0092,5.7788,6.9653,0.0120,9.8761,0.0599,1.3428,0.5188,-0.1221,0.0120,9.8761,0.0599,1.3428,0.5188,-0.1221,9.7754,0.7057,0.3848,0.0045,-0.0050,0.0010,-0.0445,0.6863,0.0899,0.7204,0.1505,0.5861,-0.1788,0.7757,9.4500,-0.9700,2.4200,0.0000,0.0000,0.0000,0.7242,-0.0699,-0.6828,-0.0653,9.7600,-0.1300,0.5700,0.0000,0.0000,0.0000,0.2145,0.2633,-0.9341,0.1092,4.4800,-0.8800,-8.6600,0.0000,0.0000,0.0000,-0.7309,-0.2753,0.5456,-0.3035,9.4500,0.7200,2.5000,0.0000,0.0000,0.0000,0.6471,0.3302,-0.5799,0.3683,9.7300,0.0000,1.1000,0.0000,0.0000,0.0000,-0.3960,0.1956,0.0596,0.8951,3.8900,-0.4700,8.9700,0.0000,0.0000,0.0000
393228,0,0,1,6.9214,9.7778,3.7354,6.5918,0.0110,-0.0092,5.7788,6.9653,-0.0287,9.8067,0.0622,1.3123,0.7019,0.1831,-0.0287,9.8067,0.0622,1.3123,0.7019,0.1831,9.7754,0.7057,0.3848,0.0045,-0.0050,0.0010,-0.0445,0.6863,0.0899,0.7204,0.1505,0.5861,-0.1788,0.7757,9.4600,-0.9800,2.4400,0.0000,0.0000,0.0000,0.7242,-0.0699,-0.6828,-0.0653,9.7600,-0.1300,0.5700,0.0000,0.0000,0.0000,0.2145,0.2633,-0.9341,0.1092,4.4800,-0.8700,-8.6400,0.0000,0.0000,0.0000,-0.7309,-0.2753,0.5456,-0.3035,9.4500,0.7200,2.5000,0.0000,0.0000,0.0000,0.6471,0.3302,-0.5799,0.3683,9.7300,0.0000,1.1000,0.0000,0.0000,0.0000,-0.3960,0.1956,0.0596,0.8951,3.9100,-0.4400,8.9700,0.0000,0.0000,0.0000
