LoopCnt,H10Mode,H10AssistLevel,ImuHubConnected,LeftHipAngle,RightHipAngle,LeftThighAngle,RightThighAngle,LeftHipTorque,RightHipTorque,LeftHipMotorAngle,RightHipMotorAngle,LeftHipImuGlobalAccX,LeftHipImuGlobalAccY,LeftHipImuGlobalAccZ,LeftHipImuGlobalGyrX,LeftHipImuGlobalGyrY,LeftHipImuGlobalGyrZ,RightHipImuGlobalAccX,RightHipImuGlobalAccY,RightHipImuGlobalAccZ,RightHipImuGlobalGyrX,RightHipImuGlobalGyrY,RightHipImuGlobalGyrZ,TrunkIMU_LocalAccX,TrunkIMU_LocalAccY,TrunkIMU_LocalAccZ,TrunkIMU_LocalGyrX,TrunkIMU_LocalGyrY,TrunkIMU_LocalGyrZ,TrunkIMU_QuatW,TrunkIMU_QuatX,TrunkIMU_QuatY,TrunkIMU_QuatZ,L_THIGH_IMU_QuatW,L_THIGH_IMU_QuatX,L_THIGH_IMU_QuatY,L_THIGH_IMU_QuatZ,L_THIGH_IMU_AccX,L_THIGH_IMU_AccY,L_THIGH_IMU_AccZ,L_THIGH_IMU_GyrX,L_THIGH_IMU_GyrY,L_THIGH_IMU_GyrZ,L_SHANK_IMU_QuatW,L_SHANK_IMU_QuatX,L_SHANK_IMU_QuatY,L_SHANK_IMU_QuatZ,L_SHANK_IMU_AccX,L_SHANK_IMU_AccY,L_SHANK_IMU_AccZ,L_SHANK_IMU_GyrX,L_SHANK_IMU_GyrY,L_SHANK_IMU_GyrZ,L_FOOT_IMU_QuatW,L_FOOT_IMU_QuatX,L_FOOT_IMU_QuatY,L_FOOT_IMU_QuatZ,L_FOOT_IMU_AccX,L_FOOT_IMU_AccY,L_FOOT_IMU_AccZ,L_FOOT_IMU_GyrX,L_FOOT_IMU_GyrY,L_FOOT_IMU_GyrZ,R_THIGH_IMU_QuatW,R_THIGH_IMU_QuatX,R_THIGH_IMU_QuatY,R_THIGH_IMU_QuatZ,R_THIGH_IMU_AccX,R_THIGH_IMU_AccY,R_THIGH_IMU_AccZ,R_THIGH_IMU_GyrX,R_THIGH_IMU_GyrY,R_THIGH_IMU_GyrZ,R_SHANK_IMU_QuatW,R_SHANK_IMU_QuatX,R_SHANK_IMU_QuatY,R_SHANK_IMU_QuatZ,R_SHANK_IMU_AccX,R_SHANK_IMU_AccY,R_SHANK_IMU_AccZ,R_SHANK_IMU_GyrX,R_SHANK_IMU_GyrY,R_SHANK_IMU_GyrZ,R_FOOT_IMU_QuatW,R_FOOT_IMU_QuatX,R_FOOT_IMU_QuatY,R_FOOT_IMU_QuatZ,R_FOOT_IMU_AccX,R_FOOT_IMU_AccY,R_FOOT_IMU_AccZ,R_FOOT_IMU_GyrX,R_FOOT_IMU_GyrY,R_FOOT_IMU_GyrZ
525669,0,0,1,-22.1704,-15.3149,-10.3711,-3.5156,0.0201,0.0037,-23.7085,-17.7759,0.0622,9.9240,0.0192,0.5493,-0.9460,-2.1362,0.0622,9.9240,0.0192,0.5493,-0.9460,-2.1362,-8.9341,1.3062,4.2483,0.0080,-0.1689,0.0146,0.4953,-0.3883,0.3780,0.6790,0.5621,0.4114,0.5857,-0.4142,-9.8200,-0.3100,-0.2100,0.0000,0.0000,0.0000,0.4188,0.6161,0.4599,0.4830,1.6700,9.5400,-1.7100,0.0000,0.2000,0.0000,0.3006,0.5493,0.4992,0.5988,3.0800,9.3700,-0.9800,0.0000,0.1000,0.0000,-0.5052,-0.4913,-0.5144,0.4884,-9.7800,-0.1200,-0.0100,0.0000,0.0000,0.0000,-0.4281,-0.5719,0.4444,0.5404,-2.4800,9.5300,-0.7000,0.0000,0.0000,0.0000,0.5185,0.6438,0.1974,0.5269,4.6300,8.5400,0.8900,0.0000,0.0000,0.0000
525670,0,0,1,-22.1704,-15.3149,-10.3711,-3.5156,-0.0092,0.0165,-23.7085,-17.7759,0.0263,9.8090,0.0048,0.6714,-0.5798,-2.2583,0.0263,9.8090,0.0048,0.6714,-0.5798,-2.2583,-8.8577,1.3147,4.2507,0.0042,-0.1623,0.0115,0.4954,-0.3880,0.3778,0.6792,0.5620,0.4114,0.5857,-0.4142,-9.8200,-0.3200,-0.2100,0.0000,0.0000,0.0000,0.4187,0.6160,0.4600,0.4831,1.7200,9.5300,-1.6800,0.0000,0.1000,0.0000,0.3006,0.5493,0.4992,0.5988,3.0800,9.3700,-0.9800,0.0000,0.1000,0.0000,-0.5052,-0.4913,-0.5144,0.4885,-9.7900,-0.0900,-0.0400,0.0000,0.0000,0.0000,-0.4281,-0.5719,0.4444,0.5404,-2.4800,9.5300,-0.7000,0.0000,0.0000,0.0000,0.5184,0.6438,0.1974,0.5269,4.5900,8.5200,0.8700,0.0000,0.0000,0.0000
525671,0,0,1,-22.1704,-15.3149,-10.3711,-3.5156,0.0128,0.0201,-23.7085,-17.7759,0.1030,9.8737,-0.0239,0.7019,-0.8850,-2.3804,0.1030,9.8737,-0.0239,0.7019,-0.8850,-2.3804,-8.8577,1.3147,4.2507,0.0042,-0.1623,0.0115,0.4954,-0.3880,0.3778,0.6792,0.5620,0.4114,0.5858,-0.4142,-9.8400,-0.3000,-0.1900,0.0000,0.0000,0.0000,0.4186,0.6159,0.4602,0.4832,1.7600,9.5100,-1.6500,0.0000,0.2000,0.0000,0.3004,0.5492,0.4994,0.5989,3.0500,9.3500,-0.9500,0.0000,0.2000,0.0000,-0.5052,-0.4913,-0.5144,0.4885,-9.8200,-0.0900,-0.0500,0.0000,0.0000,0.0000,-0.4280,-0.5718,0.4445,0.5404,-2.5000,9.5100,-0.7100,0.0000,0.0000,0.0000,0.5184,0.6438,0.1974,0.5269,4.6200,8.5500,0.9100,0.0000,0.0000,0.0000
525672,0,0,1,-22.1704,-15.3149,-10.3711,-3.5156,0.0018,-0.0183,-23.7085,-17.7759,0.0335,9.7923,-0.0335,0.5493,-0.7629,-2.2583,0.0335,9.7923,-0.0335,0.5493,-0.7629,-2.2583,-8.8014,1.3538,4.2396,0.0085,-0.1629,0.0127,0.4956,-0.3877,0.3776,0.6793,0.5620,0.4114,0.5858,-0.4142,-9.8400,-0.3000,-0.1900,0.0000,0.0000,0.0000,0.4186,0.6159,0.4602,0.4832,1.7600,9.5100,-1.6500,0.0000,0.2000,0.0000,0.3002,0.5490,0.4995,0.5990,3.1600,9.2700,-1.0200,0.0000,0.2000,0.0000,-0.5052,-0.4913,-0.5144,0.4885,-9.8200,-0.0900,-0.0500,0.0000,0.0000,0.0000,-0.4280,-0.5718,0.4445,0.5404,-2.5100,9.4900,-0.7300,0.0000,0.0000,0.0000,0.5184,0.6438,0.1974,0.5269,4.6100,8.5200,0.9000,0.0000,0.0000,0.0000
525673,0,0,1,-22.1704,-15.3149,-10.3711,-3.5156,-0.0183,-0.0146,-23.7085,-17.7759,0.0407,9.7444,0.0311,0.5493,-0.7324,-2.2888,0.0407,9.7444,0.0311,0.5493,-0.7324,-2.2888,-8.8014,1.3538,4.2396,0.0085,-0.1629,0.0127,0.4956,-0.3877,0.3776,0.6793,0.5620,0.4114,0.5858,-0.4142,-9.7800,-0.2600,-0.1900,0.0000,0.0000,0.0000,0.4185,0.6157,0.4604,0.4833,1.7800,9.5000,-1.6200,0.0000,0.2000,0.0000,0.2999,0.5489,0.4996,0.5992,3.2500,9.2300,-1.0500,0.0000,0.2000,0.0000,-0.5051,-0.4913,-0.5143,0.4886,-9.8200,-0.0600,-0.0700,0.0000,0.0000,0.0000,-0.4280,-0.5718,0.4445,0.5405,-2.5600,9.4900,-0.7500,0.0000,0.0000,0.0000,0.5184,0.6438,0.1974,0.5269,4.6100,8.5200,0.9000,0.0000,0.0000,0.0000
525674,0,0,1,-22.1704,-15.3149,-10.3711,-3.5156,-0.0073,-0.0128,-23.7085,-17.7759,0.0503,9.8114,0.0503,0.3662,-0.8850,-2.3193,0.0503,9.8114,0.0503,0.3662,-0.8850,-2.3193,-8.8014,1.3538,4.2396,0.0085,-0.1629,0.0127,0.4956,-0.3877,0.3776,0.6793,0.5619,0.4114,0.5858,-0.4142,-9.7800,-0.2500,-0.1900,0.0000,0.0000,0.0000,0.4184,0.6156,0.4606,0.4834,1.8500,9.4700,-1.6100,0.0000,0.2000,0.0000,0.2997,0.5487,0.4997,0.5993,3.3100,9.2200,-1.1100,0.0000,0.2000,0.0000,-0.5051,-0.4913,-0.5143,0.4886,-9.8000,-0.1100,-0.0600,0.0000,0.0000,0.0000,-0.4280,-0.5717,0.4446,0.5405,-2.5500,9.5000,-0.7400,0.0000,0.0000,0.0000,0.5183,0.6438,0.1974,0.5269,4.6300,8.5200,0.9300,0.0000,0.0000,0.0000
525675,0,0,1,-22.1704,-15.3149,-10.3711,-3.5156,-0.0073,-0.0128,-23.7085,-17.7759,0.0335,9.7875,0.0383,0.5188,-0.8850,-2.1667,0.0335,9.7875,0.0383,0.5188,-0.8850,-2.1667,-8.8303,1.3977,4.1764,0.0187,-0.1584,0.0128,0.4957,-0.3874,0.3775,0.6795,0.5619,0.4115,0.5858,-0.4143,-9.7900,-0.2600,-0.2000,0.0000,0.0000,0.0000,0.4182,0.6154,0.4607,0.4836,1.8500,9.4400,-1.5500,0.0000,0.2000,0.0000,0.2997,0.5487,0.4997,0.5993,3.3100,9.2200,-1.1100,0.0000,0.2000,0.0000,-0.5051,-0.4913,-0.5143,0.4887,-9.7900,-0.1200,-0.0600,0.0000,0.0000,0.0000,-0.4280,-0.5717,0.4446,0.5405,-2.5500,9.5000,-0.7400,0.0000,0.0000,0.0000,0.5183,0.6438,0.1975,0.5269,4.6300,8.4900,0.9200,0.0000,0.0000,0.0000
525676,0,0,1,-22.1704,-15.2930,-10.3711,-3.4937,-0.0165,-0.0238,-23.7085,-17.7759,0.0024,9.7971,0.0527,0.4272,-0.4272,-2.1667,0.0024,9.7971,0.0527,0.4272,-0.4272,-2.1667,-8.8303,1.3977,4.1764,0.0187,-0.1584,0.0128,0.4957,-0.3874,0.3775,0.6795,0.5619,0.4115,0.5858,-0.4143,-9.7500,-0.2700,-0.2300,0.0000,0.0000,0.0000,0.4182,0.6154,0.4607,0.4836,1.8500,9.4400,-1.5500,0.0000,0.2000,0.0000,0.2994,0.5486,0.4998,0.5995,3.3000,9.2200,-1.0100,0.0000,0.3000,0.0000,-0.5051,-0.4913,-0.5142,0.4887,-9.7900,-0.1300,-0.0700,0.0000,0.0000,0.0000,-0.4280,-0.5717,0.4446,0.5405,-2.5500,9.4900,-0.7400,0.0000,0.0000,0.0000,0.5183,0.6438,0.1975,0.5269,4.6400,8.5300,0.9400,0.0000,0.0000,0.0000
525677,0,0,1,-22.1704,-15.2930,-10.3711,-3.4937,0.0000,0.0092,-23.7085,-17.7759,-0.0239,9.7731,0.0024,0.3357,-0.7935,-1.9531,-0.0239,9.7731,0.0024,0.3357,-0.7935,-1.9531,-8.8754,1.4059,4.0900,0.0160,-0.1390,0.0163,0.4959,-0.3871,0.3773,0.6796,0.5619,0.4115,0.5858,-0.4143,-9.7500,-0.2700,-0.2300,0.0000,0.0000,0.0000,0.4181,0.6153,0.4609,0.4837,1.9600,9.4400,-1.5300,0.0000,0.2000,0.0000,0.2991,0.5484,0.5000,0.5998,3.4300,9.1700,-1.0700,0.0000,0.3000,0.0000,-0.5051,-0.4913,-0.5142,0.4888,-9.8000,-0.1200,-0.0500,0.0000,0.0000,0.0000,-0.4280,-0.5717,0.4446,0.5405,-2.5700,9.5100,-0.7200,0.0000,0.0000,0.0000,0.5183,0.6438,0.1975,0.5269,4.6100,8.5100,0.9600,0.0000,0.0000,0.0000
525678,0,0,1,-22.1704,-15.2930,-10.3711,-3.4937,0.0018,-0.0110,-23.7085,-17.7759,0.0263,9.8186,0.0886,0.3967,-0.8545,-1.9226,0.0263,9.8186,0.0886,0.3967,-0.8545,-1.9226,-8.8754,1.4059,4.0900,0.0160,-0.1390,0.0163,0.4959,-0.3871,0.3773,0.6796,0.5618,0.4115,0.5858,-0.4143,-9.7500,-0.2700,-0.2500,0.0000,0.0000,0.0000,0.4180,0.6151,0.4611,0.4839,2.0600,9.4000,-1.5400,0.0000,0.2000,0.0000,0.2987,0.5482,0.5001,0.6000,3.5500,9.1300,-1.0200,0.0000,0.3000,0.0000,-0.5051,-0.4913,-0.5142,0.4888,-9.8000,-0.1200,-0.0500,0.0000,0.0000,0.0000,-0.4280,-0.5716,0.4446,0.5405,-2.5800,9.5200,-0.7000,0.0000,0.0000,0.0000,0.5183,0.6438,0.1975,0.5269,4.6100,8.5100,0.9600,0.0000,0.0000,0.0000
525679,0,0,1,-22.1704,-15.2930,-10.3711,-3.4937,0.0128,0.0110,-23.7085,-17.7759,-0.0120,9.7205,0.0000,0.2747,-0.4272,-1.8311,-0.0120,9.7205,0.0000,0.2747,-0.4272,-1.8311,-8.8754,1.4059,4.0900,0.0160,-0.1390,0.0163,0.4959,-0.3871,0.3773,0.6796,0.5618,0.4115,0.5859,-0.4143,-9.7500,-0.2700,-0.2500,0.0000,0.0000,0.0000,0.4178,0.6149,0.4613,0.4840,2.1500,9.3500,-1.5300,0.0000,0.2000,0.0000,0.2984,0.5480,0.5002,0.6002,3.6700,9.0800,-0.9300,0.0000,0.3000,0.0000,-0.5051,-0.4913,-0.5142,0.4888,-9.8000,-0.1400,-0.0700,0.0000,0.0000,0.0000,-0.4280,-0.5716,0.4447,0.5405,-2.5800,9.5100,-0.6700,0.0000,0.0000,0.0000,0.5182,0.6439,0.1975,0.5270,4.6100,8.5200,0.9500,0.0000,0.0000,0.0000
525680,0,0,1,-22.1704,-15.2930,-10.3711,-3.4937,0.0055,0.0110,-23.7085,-17.7759,0.0000,9.7157,0.0575,0.3357,-0.9155,-1.7090,0.0000,9.7157,0.0575,0.3357,-0.9155,-1.7090,-8.9274,1.4087,4.0580,0.0022,-0.1113,0.0237,0.4959,-0.3869,0.3772,0.6798,0.5618,0.4115,0.5859,-0.4143,-9.7200,-0.2900,-0.2200,0.0000,0.0000,0.0000,0.4177,0.6148,0.4615,0.4842,2.2100,9.3800,-1.5700,0.0000,0.2000,0.0000,0.2984,0.5480,0.5002,0.6002,3.6700,9.0800,-0.9300,0.0000,0.3000,0.0000,-0.5051,-0.4913,-0.5142,0.4888,-9.8400,-0.1400,-0.0600,0.0000,0.0000,0.0000,-0.4280,-0.5716,0.4447,0.5405,-2.5700,9.5100,-0.6400,0.0000,0.0000,0.0000,0.5182,0.6439,0.1975,0.5270,4.6200,8.5500,0.9800,0.0000,0.0000,0.0000
525681,0,0,1,-22.1484,-15.2930,-10.3491,-3.4937,0.0128,-0.0128,-23.7085,-17.7759,-0.0503,9.7348,0.0263,0.3662,-0.8850,-1.8921,-0.0503,9.7348,0.0263,0.3662,-0.8850,-1.8921,-8.9274,1.4087,4.0580,0.0022,-0.1113,0.0237,0.4959,-0.3869,0.3772,0.6798,0.5617,0.4115,0.5859,-0.4143,-9.7400,-0.2600,-0.2400,0.0000,0.0000,0.0000,0.4177,0.6148,0.4615,0.4842,2.2100,9.3800,-1.5700,0.0000,0.2000,0.0000,0.2980,0.5478,0.5004,0.6004,3.8800,9.0100,-0.9900,0.0000,0.3000,0.0000,-0.5051,-0.4913,-0.5142,0.4889,-9.8400,-0.1400,-0.0500,0.0000,0.0000,0.0000,-0.4280,-0.5716,0.4447,0.5405,-2.5700,9.5100,-0.6400,0.0000,0.0000,0.0000,0.5182,0.6439,0.1976,0.5270,4.5900,8.5200,0.9800,0.0000,0.0000,0.0000
525682,0,0,1,-22.1484,-15.2930,-10.3491,-3.4937,-0.0110,0.0037,-23.7085,-17.7759,-0.0192,9.7588,0.0431,0.4272,-0.7324,-1.5869,-0.0192,9.7588,0.0431,0.4272,-0.7324,-1.5869,-8.8710,1.4169,4.1457,-0.0127,-0.0828,0.0292,0.4960,-0.3867,0.3771,0.6799,0.5617,0.4115,0.5859,-0.4143,-9.7400,-0.2600,-0.2400,0.0000,0.0000,0.0000,0.4176,0.6147,0.4616,0.4843,2.2500,9.3700,-1.6100,0.0000,0.2000,0.0000,0.2977,0.5476,0.5005,0.6007,3.9400,8.9800,-0.8500,0.0000,0.3000,0.0000,-0.5051,-0.4912,-0.5142,0.4889,-9.8400,-0.1400,-0.0400,0.0000,0.0000,0.0000,-0.4280,-0.5716,0.4447,0.5405,-2.5700,9.5100,-0.6400,0.0000,0.0000,0.0000,0.5182,0.6439,0.1976,0.5269,4.5600,8.5500,0.9600,0.0000,0.0000,0.0000
525683,0,0,1,-22.1704,-15.3149,-10.3491,-3.4937,-0.0055,-0.0275,-23.7085,-17.7759,-0.0622,9.6486,0.0024,0.2747,-0.7324,-1.6785,-0.0622,9.6486,0.0024,0.2747,-0.7324,-1.6785,-8.8710,1.4169,4.1457,-0.0127,-0.0828,0.0292,0.4960,-0.3867,0.3771,0.6799,0.5617,0.4115,0.5859,-0.4143,-9.7400,-0.2100,-0.2000,0.0000,0.0000,0.0000,0.4175,0.6145,0.4618,0.4844,2.2600,9.4200,-1.6900,0.0000,0.2000,0.0000,0.2974,0.5474,0.5006,0.6009,4.0900,8.9800,-0.8000,0.0000,0.3000,0.0000,-0.5051,-0.4912,-0.5141,0.4889,-9.8300,-0.1700,-0.0200,0.0000,0.0000,0.0000,-0.4280,-0.5716,0.4447,0.5405,-2.5800,9.4900,-0.5900,0.0000,0.0000,0.0000,0.5182,0.6439,0.1976,0.5269,4.5600,8.5500,0.9600,0.0000,0.0000,0.0000
525684,0,0,1,-22.1704,-15.3149,-10.3491,-3.4937,0.0092,0.0183,-23.7085,-17.7759,-0.0383,9.7252,-0.0096,0.2441,-0.7935,-1.8311,-0.0383,9.7252,-0.0096,0.2441,-0.7935,-1.8311,-8.8111,1.3904,4.2037,-0.0074,-0.0554,0.0353,0.4959,-0.3866,0.3771,0.6800,0.5617,0.4115,0.5859,-0.4143,-9.7200,-0.2400,-0.2200,0.0000,0.0000,0.0000,0.4173,0.6144,0.4620,0.4845,2.2600,9.4200,-1.7700,0.0000,0.2000,0.0000,0.2971,0.5472,0.5007,0.6011,4.1500,9.0000,-0.7100,0.0000,0.3000,0.0000,-0.5051,-0.4912,-0.5141,0.4889,-9.8500,-0.1600,0.0000,0.0000,0.0000,0.0000,-0.4281,-0.5715,0.4447,0.5405,-2.5800,9.5000,-0.5800,0.0000,0.0000,0.0000,0.5182,0.6439,0.1976,0.5269,4.6200,8.5300,0.9600,0.0000,0.0000,0.0000
525685,0,0,1,-22.1704,-15.3149,-10.3491,-3.4937,0.0110,0.0165,-23.7085,-17.7759,-0.0335,9.6917,0.0575,0.3052,-0.6714,-1.7700,-0.0335,9.6917,0.0575,0.3052,-0.6714,-1.7700,-8.8111,1.3904,4.2037,-0.0074,-0.0554,0.0353,0.4959,-0.3866,0.3771,0.6800,0.5616,0.4116,0.5859,-0.4143,-9.7300,-0.2700,-0.2600,0.0000,0.0000,0.0000,0.4172,0.6143,0.4621,0.4846,2.2400,9.3900,-1.8800,0.0000,0.2000,0.0000,0.2971,0.5472,0.5007,0.6011,4.1500,9.0000,-0.7100,0.0000,0.3000,0.0000,-0.5051,-0.4912,-0.5141,0.4889,-9.8400,-0.1600,0.0000,0.0000,0.0000,0.0000,-0.4281,-0.5715,0.4448,0.5405,-2.5700,9.4900,-0.5400,0.0000,0.0000,0.0000,0.5182,0.6439,0.1976,0.5269,4.6300,8.5300,0.9500,0.0000,0.0000,0.0000
525686,0,0,1,-22.1704,-15.3149,-10.3491,-3.4937,0.0165,-0.0220,-23.7085,-17.7759,-0.0383,9.7013,0.0000,0.3357,-0.7019,-1.5259,-0.0383,9.7013,0.0000,0.3357,-0.7019,-1.5259,-8.8111,1.3904,4.2037,-0.0074,-0.0554,0.0353,0.4959,-0.3866,0.3771,0.6800,0.5616,0.4116,0.5860,-0.4143,-9.7200,-0.2600,-0.2500,0.0000,0.0000,0.0000,0.4172,0.6143,0.4621,0.4846,2.2400,9.3900,-1.8800,0.0000,0.2000,0.0000,0.2968,0.5471,0.5009,0.6013,4.2300,9.0400,-0.7400,0.0000,0.3000,0.0000,-0.5051,-0.4912,-0.5141,0.4890,-9.8300,-0.1700,0.0200,0.0000,0.0000,0.0000,-0.4281,-0.5715,0.4448,0.5405,-2.5700,9.4900,-0.5400,0.0000,0.0000,0.0000,0.5182,0.6439,0.1976,0.5269,4.6600,8.5400,0.9800,0.0000,0.0000,0.0000
525687,0,0,1,-22.1704,-15.3149,-10.3491,-3.4937,0.0037,-0.0146,-23.7085,-17.7759,-0.0311,9.6582,-0.0024,0.2747,-0.7324,-1.8616,-0.0311,9.6582,-0.0024,0.2747,-0.7324,-1.8616,-8.8117,1.3678,4.1546,-0.0025,-0.0453,0.0321,0.4959,-0.3865,0.3770,0.6801,0.5616,0.4116,0.5860,-0.4143,-9.7200,-0.2600,-0.2500,0.0000,0.0000,0.0000,0.4171,0.6142,0.4623,0.4847,2.2900,9.3900,-1.9500,0.0000,0.2000,0.0000,0.2965,0.5469,0.5010,0.6015,4.2900,9.0100,-0.8000,0.0000,0.2000,0.0000,-0.5051,-0.4912,-0.5141,0.4890,-9.8300,-0.1700,0.0200,0.0000,0.0000,0.0000,-0.4281,-0.5715,0.4448,0.5405,-2.5700,9.4600,-0.5200,0.0000,0.0000,0.0000,0.5182,0.6439,0.1976,0.5269,4.6600,8.5400,0.9800,0.0000,0.0000,0.0000
525688,0,0,1,-22.1704,-15.3149,-10.3491,-3.4937,-0.0055,-0.0092,-23.7085,-17.7759,0.0024,9.7588,0.0168,0.3357,-0.7324,-1.5869,0.0024,9.7588,0.0168,0.3357,-0.7324,-1.5869,-8.8117,1.3678,4.1546,-0.0025,-0.0453,0.0321,0.4959,-0.3865,0.3770,0.6801,0.5616,0.4116,0.5860,-0.4143,-9.7200,-0.2800,-0.2500,0.0000,0.0000,0.0000,0.4169,0.6140,0.4624,0.4848,2.3100,9.4000,-1.9900,0.0000,0.2000,0.0000,0.2962,0.5468,0.5011,0.6017,4.3300,9.0000,-0.8400,0.0000,0.2000,0.0000,-0.5051,-0.4912,-0.5141,0.4890,-9.7600,-0.1800,0.0000,0.0000,0.0000,0.0000,-0.4281,-0.5715,0.4448,0.5405,-2.5400,9.4800,-0.4900,0.0000,0.0000,0.0000,0.5182,0.6440,0.1977,0.5269,4.6600,8.5200,0.9700,0.0000,0.0000,0.0000
525689,0,0,1,-22.1704,-15.3149,-10.3491,-3.4937,0.0092,0.0183,-23.7085,-17.7759,-0.0527,9.6391,-0.0024,0.3052,-1.0071,-1.8921,-0.0527,9.6391,-0.0024,0.3052,-1.0071,-1.8921,-8.8181,1.3427,4.0561,-0.0085,-0.0345,0.0303,0.4959,-0.3864,0.3770,0.6802,0.5615,0.4116,0.5860,-0.4144,-9.7200,-0.2800,-0.2600,0.0000,0.0000,0.0000,0.4168,0.6139,0.4626,0.4850,2.4000,9.3800,-1.9800,0.0000,0.2000,0.0000,0.2960,0.5467,0.5012,0.6018,4.4200,8.9200,-0.9500,0.0000,0.2000,0.0000,-0.5051,-0.4911,-0.5141,0.4890,-9.8400,-0.1600,0.0000,0.0000,0.0000,0.0000,-0.4281,-0.5715,0.4448,0.5405,-2.5600,9.4700,-0.4800,0.0000,0.0000,0.0000,0.5182,0.6440,0.1977,0.5269,4.6600,8.5200,0.9700,0.0000,0.0000,0.0000
525690,0,0,1,-22.1704,-15.3149,-10.3491,-3.4937,-0.0073,-0.0110,-23.7085,-17.7759,0.0215,9.7013,-0.0622,0.3357,-0.6104,-1.8311,0.0215,9.7013,-0.0622,0.3357,-0.6104,-1.8311,-8.8181,1.3427,4.0561,-0.0085,-0.0345,0.0303,0.4959,-0.3864,0.3770,0.6802,0.5615,0.4116,0.5860,-0.4144,-9.6600,-0.2600,-0.2200,0.0000,0.0000,0.0000,0.4167,0.6138,0.4627,0.4851,2.4700,9.3500,-1.9000,0.0000,0.2000,0.0000,0.2960,0.5467,0.5012,0.6018,4.4200,8.9200,-0.9500,0.0000,0.2000,0.0000,-0.5051,-0.4911,-0.5141,0.4890,-9.7800,-0.1700,0.0200,0.0000,0.0000,0.0000,-0.4281,-0.5715,0.4448,0.5404,-2.5800,9.4500,-0.4700,0.0000,0.0000,0.0000,0.5182,0.6440,0.1977,0.5268,4.6600,8.5200,0.9400,0.0000,0.0000,0.0000
525691,0,0,1,-22.1704,-15.3149,-10.3491,-3.4937,0.0220,-0.0238,-23.7085,-17.7759,0.0000,9.7013,0.0192,0.3052,-0.6714,-1.7395,0.0000,9.7013,0.0192,0.3052,-0.6714,-1.7395,-8.8181,1.3427,4.0561,-0.0085,-0.0345,0.0303,0.4959,-0.3864,0.3770,0.6802,0.5615,0.4116,0.5860,-0.4144,-9.6600,-0.2600,-0.2200,0.0000,0.0000,0.0000,0.4165,0.6137,0.4629,0.4852,2.5800,9.3200,-1.8500,0.0000,0.2000,0.0000,0.2957,0.5465,0.5013,0.6020,4.4400,8.9200,-0.9600,0.0000,0.2000,0.0000,-0.5051,-0.4911,-0.5141,0.4890,-9.7700,-0.1900,0.0100,0.0000,0.0000,0.0000,-0.4281,-0.5715,0.4448,0.5404,-2.5800,9.4500,-0.4700,0.0000,0.0000,0.0000,0.5182,0.6440,0.1977,0.5268,4.6800,8.5100,0.9100,0.0000,0.0000,0.0000
525692,0,0,1,-22.1704,-15.3149,-10.3491,-3.4937,0.0092,0.0165,-23.7085,-17.7759,-0.0503,9.6534,-0.0862,0.3662,-0.7324,-1.8311,-0.0503,9.6534,-0.0862,0.3662,-0.7324,-1.8311,-8.9255,1.3530,4.0003,-0.0034,-0.0082,0.0347,0.4959,-0.3864,0.3770,0.6802,0.5614,0.4116,0.5860,-0.4144,-9.6700,-0.2300,-0.2000,0.0000,0.0000,0.0000,0.4165,0.6137,0.4629,0.4852,2.5800,9.3200,-1.8500,0.0000,0.2000,0.0000,0.2955,0.5464,0.5014,0.6021,4.4800,8.9500,-0.9800,0.0000,0.2000,0.0000,-0.5051,-0.4911,-0.5141,0.4890,-9.7700,-0.1900,0.0100,0.0000,0.0000,0.0000,-0.4282,-0.5715,0.4448,0.5404,-2.5800,9.4300,-0.4400,0.0000,0.0000,0.0000,0.5182,0.6440,0.1977,0.5268,4.7000,8.5000,0.8700,0.0000,0.0000,0.0000
525693,0,0,1,-22.1704,-15.2930,-10.3491,-3.4717,-0.0146,-0.0110,-23.7085,-17.7759,-0.0120,9.6726,0.0048,0.5188,-0.5188,-1.7395,-0.0120,9.6726,0.0048,0.5188,-0.5188,-1.7395,-8.9255,1.3530,4.0003,-0.0034,-0.0082,0.0347,0.4959,-0.3864,0.3770,0.6802,0.5614,0.4116,0.5860,-0.4144,-9.6800,-0.2600,-0.1700,0.0000,0.0000,0.0000,0.4164,0.6136,0.4630,0.4854,2.7000,9.3000,-1.8000,0.0000,0.2000,0.0000,0.2953,0.5462,0.5015,0.6023,4.4900,8.9600,-0.9500,0.0000,0.2000,0.0000,-0.5051,-0.4911,-0.5141,0.4890,-9.7800,-0.1900,0.0200,0.0000,0.0000,0.0000,-0.4282,-0.5715,0.4448,0.5404,-2.5900,9.4500,-0.4400,0.0000,0.0000,0.0000,0.5182,0.6440,0.1977,0.5268,4.7000,8.5000,0.8700,0.0000,0.0000,0.0000
525694,0,0,1,-22.1704,-15.2930,-10.3491,-3.4717,0.0128,-0.0256,-23.7085,-17.7759,-0.0072,9.6774,-0.0431,0.4883,-0.7324,-1.8921,-0.0072,9.6774,-0.0431,0.4883,-0.7324,-1.8921,-8.9461,1.3342,3.9362,0.0021,0.0417,0.0358,0.4958,-0.3864,0.3771,0.6802,0.5614,0.4116,0.5861,-0.4144,-9.7300,-0.2500,-0.1600,0.0000,0.0000,0.0000,0.4163,0.6135,0.4631,0.4855,2.7900,9.3100,-1.7400,0.0000,0.1000,0.0000,0.2951,0.5461,0.5016,0.6024,4.5200,9.0000,-0.9100,0.0000,0.2000,0.0000,-0.5051,-0.4911,-0.5141,0.4890,-9.7400,-0.1800,0.0200,0.0000,0.0000,0.0000,-0.4282,-0.5714,0.4448,0.5404,-2.5800,9.4300,-0.4500,0.0000,0.0000,0.0000,0.5182,0.6440,0.1977,0.5268,4.6800,8.5000,0.8800,0.0000,0.0000,0.0000
525695,0,0,1,-22.1484,-15.2930,-10.3271,-3.4717,-0.0092,0.0037,-23.7085,-17.7759,0.0263,9.7540,0.0168,0.3967,-0.7629,-1.6479,0.0263,9.7540,0.0168,0.3967,-0.7629,-1.6479,-8.9461,1.3342,3.9362,0.0021,0.0417,0.0358,0.4958,-0.3864,0.3771,0.6802,0.5613,0.4117,0.5861,-0.4144,-9.7500,-0.2700,-0.1300,0.0000,0.0000,0.0000,0.4162,0.6134,0.4632,0.4856,2.9200,9.3100,-1.6400,0.0000,0.1000,0.0000,0.2951,0.5461,0.5016,0.6024,4.5200,9.0000,-0.9100,0.0000,0.2000,0.0000,-0.5051,-0.4911,-0.5141,0.4891,-9.7500,-0.1600,0.0300,0.0000,0.0000,0.0000,-0.4282,-0.5714,0.4448,0.5404,-2.5800,9.4300,-0.4500,0.0000,0.0000,0.0000,0.5182,0.6440,0.1978,0.5267,4.6800,8.5100,0.8400,0.0000,0.0000,0.0000
525696,0,0,1,-22.1484,-15.2930,-10.3271,-3.4717,0.0110,-0.0110,-23.7085,-17.7759,-0.0599,9.6031,-0.0982,0.5493,-0.5188,-1.6479,-0.0599,9.6031,-0.0982,0.5493,-0.5188,-1.6479,-8.9461,1.3342,3.9362,0.0021,0.0417,0.0358,0.4958,-0.3864,0.3771,0.6802,0.5613,0.4117,0.5861,-0.4144,-9.7500,-0.2700,-0.1300,0.0000,0.0000,0.0000,0.4162,0.6134,0.4632,0.4856,2.9200,9.3100,-1.6400,0.0000,0.1000,0.0000,0.2948,0.5460,0.5017,0.6026,4.5500,8.9800,-0.8500,0.0000,0.2000,0.0000,-0.5051,-0.4911,-0.5141,0.4891,-9.7700,-0.1600,0.0500,0.0000,0.0000,0.0000,-0.4282,-0.5714,0.4448,0.5404,-2.6000,9.4300,-0.4700,0.0000,0.0000,0.0000,0.5182,0.6440,0.1978,0.5267,4.6900,8.5100,0.8400,0.0000,0.0000,0.0000
525697,0,0,1,-22.1484,-15.2930,-10.3271,-3.4717,0.0128,0.0128,-23.7085,-17.7759,0.0479,9.7300,-0.0263,0.5798,-0.7019,-1.7700,0.0479,9.7300,-0.0263,0.5798,-0.7019,-1.7700,-8.8491,1.3407,4.0613,0.0109,0.0811,0.0350,0.4956,-0.3865,0.3772,0.6802,0.5613,0.4117,0.5861,-0.4145,-9.7500,-0.2900,-0.1100,0.0000,0.0000,0.0000,0.4160,0.6133,0.4633,0.4857,3.0200,9.3400,-1.5700,0.0000,0.1000,0.0000,0.2947,0.5459,0.5017,0.6027,4.5200,9.0100,-0.7900,0.0000,0.1000,0.0000,-0.5051,-0.4911,-0.5141,0.4891,-9.7700,-0.1600,0.0500,0.0000,0.0000,0.0000,-0.4283,-0.5714,0.4448,0.5404,-2.5600,9.4300,-0.4900,0.0000,0.0000,0.0000,0.5183,0.6440,0.1978,0.5266,4.7000,8.5000,0.8500,0.0000,0.0000,0.0000
525698,0,0,1,-22.1704,-15.3149,-10.3271,-3.4717,0.0110,0.0128,-23.7085,-17.7759,-0.0048,9.6630,0.0000,0.7629,-0.7324,-2.0752,-0.0048,9.6630,0.0000,0.7629,-0.7324,-2.0752,-8.8491,1.3407,4.0613,0.0109,0.0811,0.0350,0.4956,-0.3865,0.3772,0.6802,0.5613,0.4117,0.5861,-0.4145,-9.7500,-0.2900,-0.1100,0.0000,0.0000,0.0000,0.4159,0.6132,0.4634,0.4858,3.1100,9.3300,-1.5200,0.0000,0.1000,0.0000,0.2945,0.5458,0.5018,0.6028,4.4600,9.0000,-0.7700,0.0000,0.1000,0.0000,-0.5051,-0.4910,-0.5141,0.4891,-9.7600,-0.1500,0.0500,0.0000,0.0000,0.0000,-0.4283,-0.5714,0.4448,0.5403,-2.5900,9.4300,-0.5200,0.0000,0.0000,0.0000,0.5183,0.6440,0.1978,0.5266,4.7000,8.5000,0.8500,0.0000,0.0000,0.0000
525699,0,0,1,-22.1704,-15.3149,-10.3271,-3.4717,-0.0037,0.0165,-23.7085,-17.7759,0.0383,9.7683,-0.0383,0.5493,-0.5188,-1.7700,0.0383,9.7683,-0.0383,0.5493,-0.5188,-1.7700,-8.6900,1.3054,4.0963,0.0178,0.0878,0.0381,0.4955,-0.3866,0.3774,0.6802,0.5612,0.4117,0.5861,-0.4145,-9.7500,-0.2700,-0.0900,0.0000,0.0000,0.0000,0.4159,0.6132,0.4634,0.4859,3.1800,9.3700,-1.5100,0.0000,0.0000,0.0000,0.2944,0.5457,0.5019,0.6029,4.4200,8.9900,-0.7900,0.0000,0.1000,0.0000,-0.5051,-0.4910,-0.5141,0.4891,-9.7500,-0.1400,0.0700,0.0000,0.0000,0.0000,-0.4283,-0.5715,0.4448,0.5403,-2.6100,9.4300,-0.5500,0.0000,0.0000,0.0000,0.5183,0.6440,0.1978,0.5266,4.6700,8.5300,0.8600,0.0000,0.0000,0.0000
525700,0,0,1,-22.1704,-15.3149,-10.3271,-3.4717,0.0128,0.0201,-23.7085,-17.7759,0.0287,9.7636,-0.0287,0.6714,-0.8545,-1.6785,0.0287,9.7636,-0.0287,0.6714,-0.8545,-1.6785,-8.6900,1.3054,4.0963,0.0178,0.0878,0.0381,0.4955,-0.3866,0.3774,0.6802,0.5612,0.4117,0.5861,-0.4145,-9.7600,-0.3100,-0.1100,0.0000,0.0000,0.0000,0.4158,0.6133,0.4634,0.4859,3.1200,9.3600,-1.5400,0.0000,0.0000,0.0000,0.2944,0.5457,0.5019,0.6029,4.4200,8.9900,-0.7900,0.0000,0.1000,0.0000,-0.5051,-0.4910,-0.5141,0.4891,-9.7700,-0.1300,0.0600,0.0000,0.0000,0.0000,-0.4283,-0.5715,0.4448,0.5403,-2.6100,9.4300,-0.5500,0.0000,0.0000,0.0000,0.5184,0.6440,0.1978,0.5265,4.6500,8.5200,0.8800,0.0000,0.0000,0.0000
525701,0,0,1,-22.1704,-15.3149,-10.3271,-3.4717,0.0073,0.0128,-23.7085,-17.7759,0.0575,9.8138,-0.0527,0.7629,-0.9155,-1.7700,0.0575,9.8138,-0.0527,0.7629,-0.9155,-1.7700,-8.6900,1.3054,4.0963,0.0178,0.0878,0.0381,0.4955,-0.3866,0.3774,0.6802,0.5612,0.4117,0.5861,-0.4146,-9.8100,-0.3200,-0.1200,0.0000,0.0000,0.0000,0.4158,0.6133,0.4634,0.4859,3.1200,9.3600,-1.5400,0.0000,0.0000,0.0000,0.2942,0.5456,0.5019,0.6030,4.3700,9.0200,-0.7600,0.0000,0.1000,0.0000,-0.5051,-0.4910,-0.5141,0.4891,-9.7600,-0.1400,0.0700,0.0000,0.0000,0.0000,-0.4284,-0.5715,0.4448,0.5403,-2.5800,9.4100,-0.5600,0.0000,0.0000,0.0000,0.5184,0.6440,0.1978,0.5265,4.6800,8.5200,0.9000,0.0000,0.0000,0.0000
525702,0,0,1,-22.1704,-15.3149,-10.3271,-3.4717,0.0128,-0.0110,-23.7085,-17.7759,0.0287,9.6965,-0.0263,0.8850,-0.7324,-1.7395,0.0287,9.6965,-0.0263,0.8850,-0.7324,-1.7395,-8.6230,1.2579,4.0598,0.0166,0.0862,0.0406,0.4954,-0.3867,0.3775,0.6801,0.5612,0.4117,0.5861,-0.4146,-9.8100,-0.3200,-0.1200,0.0000,0.0000,0.0000,0.4158,0.6133,0.4634,0.4858,3.0400,9.3200,-1.6300,0.0000,0.0000,0.0000,0.2941,0.5456,0.5020,0.6030,4.2700,9.0200,-0.7500,0.0000,0.0000,0.0000,-0.5051,-0.4910,-0.5141,0.4891,-9.7600,-0.1400,0.0700,0.0000,0.0000,0.0000,-0.4284,-0.5715,0.4448,0.5402,-2.5800,9.4100,-0.5500,0.0000,0.0000,0.0000,0.5184,0.6440,0.1978,0.5264,4.6600,8.4900,0.8600,0.0000,0.0000,0.0000
525703,0,0,1,-22.1704,-15.3149,-10.3271,-3.4717,0.0220,-0.0256,-23.7085,-17.7759,0.0790,9.8689,-0.0455,0.6714,-0.8545,-1.6479,0.0790,9.8689,-0.0455,0.6714,-0.8545,-1.6479,-8.6230,1.2579,4.0598,0.0166,0.0862,0.0406,0.4954,-0.3867,0.3775,0.6801,0.5612,0.4117,0.5861,-0.4146,-9.8400,-0.2900,-0.1300,0.0000,0.0000,0.0000,0.4158,0.6134,0.4633,0.4858,2.9500,9.3000,-1.7100,0.0000,0.0000,0.0000,0.2941,0.5455,0.5020,0.6031,4.2500,9.0100,-0.8000,0.0000,0.0000,0.0000,-0.5051,-0.4910,-0.5142,0.4891,-9.7600,-0.1400,0.0700,0.0000,0.0000,0.0000,-0.4284,-0.5715,0.4447,0.5402,-2.5600,9.4000,-0.5400,0.0000,0.0000,0.0000,0.5184,0.6440,0.1978,0.5264,4.6600,8.4900,0.8600,0.0000,0.0000,0.0000
525704,0,0,1,-22.1704,-15.3149,-10.3271,-3.4717,-0.0128,0.0092,-23.7085,-17.7759,0.0527,9.7971,-0.0503,0.7935,-0.8240,-1.5259,0.0527,9.7971,-0.0503,0.7935,-0.8240,-1.5259,-8.6230,1.2579,4.0598,0.0166,0.0862,0.0406,0.4954,-0.3867,0.3775,0.6801,0.5611,0.4117,0.5861,-0.4146,-9.8200,-0.3400,-0.1200,0.0000,0.0000,0.0000,0.4158,0.6135,0.4633,0.4857,2.8200,9.2700,-1.7900,0.0000,-0.1000,0.0000,0.2940,0.5455,0.5020,0.6031,4.2400,9.0100,-0.8200,0.0000,0.0000,0.0000,-0.5051,-0.4910,-0.5142,0.4892,-9.7100,-0.1100,0.0700,0.0000,0.0000,0.0000,-0.4285,-0.5715,0.4447,0.5402,-2.5500,9.3900,-0.5400,0.0000,0.0000,0.0000,0.5185,0.6440,0.1979,0.5264,4.6600,8.4900,0.8300,0.0000,0.0000,0.0000
525705,0,0,1,-22.1704,-15.2930,-10.3271,-3.4497,0.0092,0.0000,-23.7085,-17.7759,0.0814,9.7779,0.0000,0.7019,-0.9460,-1.7090,0.0814,9.7779,0.0000,0.7019,-0.9460,-1.7090,-8.5854,1.1939,4.0760,-0.0032,0.0625,0.0396,0.4952,-0.3868,0.3777,0.6801,0.5611,0.4117,0.5862,-0.4146,-9.8300,-0.3600,-0.1500,0.0000,0.0000,0.0000,0.4158,0.6137,0.4632,0.4856,2.7000,9.2700,-1.8400,0.0000,-0.1000,0.0000,0.2940,0.5455,0.5020,0.6031,4.2400,9.0100,-0.8200,0.0000,0.0000,0.0000,-0.5051,-0.4910,-0.5142,0.4892,-9.7000,-0.1300,0.0800,0.0000,0.0000,0.0000,-0.4285,-0.5715,0.4447,0.5402,-2.5500,9.3900,-0.5400,0.0000,0.0000,0.0000,0.5185,0.6440,0.1979,0.5263,4.6800,8.5000,0.8300,0.0000,0.0000,0.0000
525706,0,0,1,-22.1484,-15.2930,-10.3052,-3.4497,0.0128,0.0201,-23.7085,-17.7759,0.1053,9.7971,-0.0096,0.9766,-0.8240,-1.6479,0.1053,9.7971,-0.0096,0.9766,-0.8240,-1.6479,-8.5854,1.1939,4.0760,-0.0032,0.0625,0.0396,0.4952,-0.3868,0.3777,0.6801,0.5611,0.4117,0.5862,-0.4146,-9.8600,-0.3500,-0.1700,0.0000,0.0000,0.0000,0.4158,0.6137,0.4632,0.4856,2.7000,9.2700,-1.8400,0.0000,-0.1000,0.0000,0.2939,0.5455,0.5021,0.6031,4.2300,9.0000,-0.7800,0.0000,0.0000,0.0000,-0.5051,-0.4910,-0.5142,0.4892,-9.7100,-0.1000,0.0800,0.0000,0.0000,0.0000,-0.4285,-0.5715,0.4447,0.5402,-2.5500,9.3900,-0.5400,0.0000,0.0000,0.0000,0.5186,0.6440,0.1979,0.5263,4.6700,8.4900,0.8000,0.0000,0.0000,0.0000
525707,0,0,1,-22.1484,-15.2930,-10.3052,-3.4497,-0.0092,0.0110,-23.7085,-17.7759,0.1149,9.8019,-0.0024,1.0986,-0.8850,-1.2817,0.1149,9.8019,-0.0024,1.0986,-0.8850,-1.2817,-8.5704,1.1809,4.1231,-0.0157,0.0380,0.0403,0.4951,-0.3868,0.3777,0.6801,0.5611,0.4117,0.5862,-0.4146,-9.8600,-0.3500,-0.1700,0.0000,0.0000,0.0000,0.4159,0.6138,0.4631,0.4855,2.6000,9.3000,-1.8700,0.0000,-0.1000,0.0000,0.2939,0.5455,0.5021,0.6032,4.2300,9.0000,-0.7700,0.0000,0.0000,0.0000,-0.5051,-0.4909,-0.5142,0.4892,-9.6700,-0.1100,0.0700,0.0000,0.0000,0.0000,-0.4286,-0.5716,0.4446,0.5401,-2.4800,9.3900,-0.5100,0.0000,0.0000,0.0000,0.5186,0.6440,0.1979,0.5263,4.6700,8.4900,0.8000,0.0000,0.0000,0.0000
525708,0,0,1,-22.1704,-15.3149,-10.3052,-3.4497,-0.0037,-0.0201,-23.7085,-17.7759,0.1652,9.8904,-0.0335,1.0071,-0.7935,-1.4343,0.1652,9.8904,-0.0335,1.0071,-0.7935,-1.4343,-8.5704,1.1809,4.1231,-0.0157,0.0380,0.0403,0.4951,-0.3868,0.3777,0.6801,0.5610,0.4117,0.5862,-0.4146,-9.8400,-0.3400,-0.1600,0.0000,0.0000,0.0000,0.4159,0.6139,0.4630,0.4854,2.5200,9.3200,-1.8500,0.0000,-0.1000,0.0000,0.2939,0.5455,0.5021,0.6032,4.1900,8.9800,-0.7800,0.0000,0.0000,0.0000,-0.5051,-0.4909,-0.5142,0.4892,-9.6700,-0.1100,0.0700,0.0000,0.0000,0.0000,-0.4287,-0.5716,0.4446,0.5401,-2.4400,9.4000,-0.5200,0.0000,0.0000,0.0000,0.5186,0.6440,0.1980,0.5262,4.6500,8.5200,0.8200,0.0000,0.0000,0.0000
525709,0,0,1,-22.1704,-15.3149,-10.3052,-3.4497,-0.0018,0.0110,-23.7085,-17.7759,0.1173,9.8474,-0.0096,0.8545,-1.0986,-1.3123,0.1173,9.8474,-0.0096,0.8545,-1.0986,-1.3123,-8.5704,1.1809,4.1231,-0.0157,0.0380,0.0403,0.4951,-0.3868,0.3777,0.6801,0.5610,0.4117,0.5862,-0.4146,-9.8200,-0.3700,-0.1700,0.0000,0.0000,0.0000,0.4160,0.6140,0.4629,0.4853,2.4200,9.3600,-1.8000,0.0000,-0.1000,0.0000,0.2939,0.5455,0.5021,0.6031,4.1300,9.0200,-0.7900,0.0000,0.0000,0.0000,-0.5051,-0.4909,-0.5142,0.4892,-9.6900,-0.0900,0.0800,0.0000,0.0000,0.0000,-0.4287,-0.5716,0.4446,0.5400,-2.4200,9.4000,-0.5100,0.0000,0.0000,0.0000,0.5187,0.6440,0.1980,0.5261,4.6400,8.5100,0.8000,0.0000,0.0000,0.0000
525710,0,0,1,-22.1704,-15.3149,-10.3052,-3.4497,-0.0201,-0.0220,-23.7085,-17.7759,0.0862,9.8282,-0.0192,1.0376,-0.9155,-1.2207,0.0862,9.8282,-0.0192,1.0376,-0.9155,-1.2207,-8.6359,1.1888,4.0754,-0.0248,0.0137,0.0397,0.4950,-0.3869,0.3777,0.6802,0.5610,0.4117,0.5863,-0.4146,-9.8400,-0.3700,-0.1800,0.0000,0.0000,0.0000,0.4161,0.6141,0.4627,0.4852,2.3900,9.3800,-1.7400,0.0000,-0.1000,0.0000,0.2939,0.5455,0.5021,0.6031,4.1300,9.0200,-0.7900,0.0000,0.0000,0.0000,-0.5051,-0.4909,-0.5142,0.4892,-9.7000,-0.0800,0.0700,0.0000,0.0000,0.0000,-0.4288,-0.5716,0.4445,0.5400,-2.4000,9.4100,-0.5300,0.0000,0.0000,0.0000,0.5187,0.6440,0.1980,0.5261,4.6700,8.5000,0.7900,0.0000,0.0000,0.0000
525711,0,0,1,-22.1704,-15.3149,-10.3052,-3.4497,-0.0073,-0.0220,-23.7085,-17.7759,0.1389,9.8809,0.0024,1.1292,-0.7629,-1.0681,0.1389,9.8809,0.0024,1.1292,-0.7629,-1.0681,-8.6359,1.1888,4.0754,-0.0248,0.0137,0.0397,0.4950,-0.3869,0.3777,0.6802,0.5610,0.4117,0.5863,-0.4146,-9.8400,-0.3500,-0.1900,0.0000,0.0000,0.0000,0.4162,0.6143,0.4626,0.4851,2.3600,9.3800,-1.7300,0.0000,-0.1000,0.0000,0.2939,0.5455,0.5021,0.6031,4.0700,9.0200,-0.7600,0.0000,0.0000,0.0000,-0.5051,-0.4909,-0.5142,0.4892,-9.7100,-0.0800,0.0500,0.0000,0.0000,0.0000,-0.4288,-0.5716,0.4445,0.5400,-2.4000,9.4100,-0.5300,0.0000,0.0000,0.0000,0.5188,0.6441,0.1981,0.5260,4.6700,8.4900,0.7600,0.0000,0.0000,0.0000
525712,0,0,1,-22.1704,-15.3149,-10.3052,-3.4497,-0.0110,0.0220,-23.7085,-17.7759,0.0742,9.7875,0.0048,1.0376,-1.0376,-0.8240,0.0742,9.7875,0.0048,1.0376,-1.0376,-0.8240,-8.6794,1.2113,4.0472,-0.0292,-0.0048,0.0391,0.4949,-0.3869,0.3777,0.6802,0.5610,0.4117,0.5863,-0.4146,-9.8400,-0.3500,-0.1900,0.0000,0.0000,0.0000,0.4162,0.6143,0.4626,0.4851,2.3600,9.3800,-1.7300,0.0000,-0.1000,0.0000,0.2940,0.5456,0.5020,0.6031,3.9400,9.0300,-0.7100,0.0000,0.0000,0.0000,-0.5051,-0.4908,-0.5142,0.4892,-9.6800,-0.0600,0.0500,0.0000,0.0000,0.0000,-0.4288,-0.5716,0.4445,0.5400,-2.3700,9.4200,-0.5500,0.0000,0.0000,0.0000,0.5188,0.6441,0.1981,0.5260,4.6700,8.4900,0.7600,0.0000,0.0000,0.0000
525713,0,0,1,-22.1704,-15.2930,-10.3052,-3.4277,-0.0037,-0.0165,-23.7085,-17.7759,0.1077,9.8952,0.0048,0.8545,-1.1292,-0.9155,0.1077,9.8952,0.0048,0.8545,-1.1292,-0.9155,-8.6794,1.2113,4.0472,-0.0292,-0.0048,0.0391,0.4949,-0.3869,0.3777,0.6802,0.5610,0.4117,0.5863,-0.4146,-9.8200,-0.3600,-0.2000,0.0000,0.0000,0.0000,0.4163,0.6144,0.4625,0.4850,2.3400,9.4000,-1.7000,0.0000,-0.1000,0.0000,0.2940,0.5456,0.5020,0.6031,3.8300,9.0600,-0.7200,0.0000,0.0000,0.0000,-0.5051,-0.4908,-0.5142,0.4892,-9.6800,-0.0600,0.0500,0.0000,0.0000,0.0000,-0.4289,-0.5716,0.4445,0.5400,-2.3300,9.4300,-0.5600,0.0000,0.0000,0.0000,0.5188,0.6441,0.1981,0.5259,4.6700,8.5000,0.7800,0.0000,0.0000,0.0000
525714,0,0,1,-22.1484,-15.2930,-10.2832,-3.4277,-0.0073,-0.0146,-23.7085,-17.7759,0.1149,9.8833,0.0048,1.0681,-0.8545,-0.7935,0.1149,9.8833,0.0048,1.0681,-0.8545,-0.7935,-8.6794,1.2113,4.0472,-0.0292,-0.0048,0.0391,0.4949,-0.3869,0.3777,0.6802,0.5609,0.4117,0.5863,-0.4145,-9.8500,-0.3700,-0.1900,0.0000,0.0000,0.0000,0.4163,0.6145,0.4623,0.4848,2.3100,9.4300,-1.6800,0.0000,-0.1000,0.0000,0.2941,0.5457,0.5019,0.6030,3.7000,9.1100,-0.7300,0.0000,0.0000,0.0000,-0.5051,-0.4908,-0.5142,0.4892,-9.6900,-0.0300,0.0500,0.0000,0.0000,0.0000,-0.4289,-0.5716,0.4445,0.5400,-2.3300,9.4300,-0.5600,0.0000,0.0000,0.0000,0.5188,0.6441,0.1982,0.5258,4.7000,8.4900,0.7800,0.0000,0.0000,0.0000
525715,0,0,1,-22.1484,-15.2930,-10.2832,-3.4277,0.0128,0.0165,-23.7085,-17.7759,0.1101,9.8234,-0.0503,1.0071,-1.1902,-0.6104,0.1101,9.8234,-0.0503,1.0071,-1.1902,-0.6104,-8.7299,1.2159,4.0698,-0.0353,-0.0172,0.0360,0.4948,-0.3869,0.3777,0.6803,0.5609,0.4117,0.5864,-0.4145,-9.8200,-0.3800,-0.2300,0.0000,0.0000,0.0000,0.4164,0.6147,0.4622,0.4847,2.2800,9.4200,-1.6600,0.0000,-0.2000,0.0000,0.2941,0.5457,0.5019,0.6030,3.7000,9.1100,-0.7300,0.0000,0.0000,0.0000,-0.5052,-0.4907,-0.5142,0.4892,-9.7300,-0.0300,0.0400,0.0000,0.0000,0.0000,-0.4290,-0.5717,0.4444,0.5399,-2.3000,9.4700,-0.5600,0.0000,0.0000,0.0000,0.5189,0.6441,0.1983,0.5257,4.6800,8.5000,0.7700,0.0000,0.0000,0.0000
525716,0,0,1,-22.1704,-15.3149,-10.2832,-3.4277,0.0073,-0.0146,-23.7085,-17.7759,0.0982,9.7971,0.0311,0.8240,-1.0071,-0.7324,0.0982,9.7971,0.0311,0.8240,-1.0071,-0.7324,-8.7299,1.2159,4.0698,-0.0353,-0.0172,0.0360,0.4948,-0.3869,0.3777,0.6803,0.5609,0.4117,0.5864,-0.4145,-9.8100,-0.3700,-0.2300,0.0000,0.0000,0.0000,0.4164,0.6147,0.4622,0.4847,2.2800,9.4200,-1.6600,0.0000,-0.2000,0.0000,0.2942,0.5458,0.5019,0.6029,3.5500,9.1600,-0.7600,0.0000,-0.1000,0.0000,-0.5052,-0.4907,-0.5142,0.4893,-9.7500,-0.0600,0.0200,0.0000,0.0000,0.0000,-0.4290,-0.5717,0.4444,0.5399,-2.3000,9.4700,-0.5600,0.0000,0.0000,0.0000,0.5189,0.6442,0.1983,0.5256,4.6800,8.5000,0.7900,0.0000,0.0000,0.0000
525717,0,0,1,-22.1704,-15.3149,-10.2832,-3.4277,0.0037,0.0183,-23.7085,-17.7759,0.1006,9.8952,0.0192,1.1597,-1.1292,-0.4578,0.1006,9.8952,0.0192,1.1597,-1.1292,-0.4578,-8.7198,1.2578,4.0896,-0.0376,-0.0257,0.0361,0.4947,-0.3868,0.3776,0.6804,0.5609,0.4117,0.5864,-0.4145,-9.8100,-0.3700,-0.2300,0.0000,0.0000,0.0000,0.4165,0.6148,0.4621,0.4845,2.2300,9.4300,-1.6800,0.0000,-0.2000,0.0000,0.2943,0.5459,0.5018,0.6029,3.4400,9.2400,-0.7900,0.0000,-0.1000,0.0000,-0.5052,-0.4907,-0.5142,0.4893,-9.7500,-0.0600,0.0200,0.0000,0.0000,0.0000,-0.4290,-0.5717,0.4443,0.5399,-2.2700,9.4500,-0.5500,0.0000,0.0000,0.0000,0.5190,0.6442,0.1984,0.5255,4.6700,8.5300,0.8200,0.0000,0.0000,0.0000
525718,0,0,1,-22.1704,-15.3149,-10.2832,-3.4277,0.0128,-0.0146,-23.7085,-17.7759,0.0694,9.7588,0.0000,1.0071,-1.3123,-0.5493,0.0694,9.7588,0.0000,1.0071,-1.3123,-0.5493,-8.7198,1.2578,4.0896,-0.0376,-0.0257,0.0361,0.4947,-0.3868,0.3776,0.6804,0.5609,0.4117,0.5864,-0.4145,-9.7700,-0.3200,-0.2400,0.0000,0.0000,0.0000,0.4167,0.6150,0.4619,0.4844,2.1800,9.3900,-1.7100,0.0000,-0.2000,0.0000,0.2944,0.5460,0.5017,0.6028,3.2900,9.2600,-0.8400,0.0000,-0.1000,0.0000,-0.5052,-0.4906,-0.5142,0.4893,-9.7700,-0.0300,0.0000,0.0000,0.0000,0.0000,-0.4290,-0.5717,0.4443,0.5399,-2.2600,9.4600,-0.5400,0.0000,0.0000,0.0000,0.5190,0.6442,0.1984,0.5255,4.6700,8.5300,0.8200,0.0000,0.0000,0.0000
525719,0,0,1,-22.1704,-15.3149,-10.2832,-3.4277,0.0073,0.0000,-23.7085,-17.7759,0.0886,9.8569,-0.0239,0.7935,-1.2512,-0.4883,0.0886,9.8569,-0.0239,0.7935,-1.2512,-0.4883,-8.7198,1.2578,4.0896,-0.0376,-0.0257,0.0361,0.4947,-0.3868,0.3776,0.6804,0.5609,0.4117,0.5865,-0.4145,-9.7900,-0.3200,-0.2500,0.0000,0.0000,0.0000,0.4168,0.6151,0.4618,0.4842,2.1300,9.4000,-1.7300,0.0000,-0.2000,0.0000,0.2944,0.5461,0.5017,0.6027,3.2200,9.2900,-0.8900,0.0000,-0.1000,0.0000,-0.5052,-0.4906,-0.5142,0.4893,-9.7900,-0.0300,0.0100,0.0000,0.0000,0.0000,-0.4291,-0.5717,0.4443,0.5399,-2.2500,9.5000,-0.5400,0.0000,0.0000,0.0000,0.5190,0.6442,0.1984,0.5254,4.6600,8.5100,0.8000,0.0000,0.0000,0.0000
525720,0,0,1,-22.1704,-15.3149,-10.2832,-3.4277,-0.0055,-0.0128,-23.7085,-17.7759,0.0239,9.7492,-0.0072,1.0071,-1.0376,-0.4272,0.0239,9.7492,-0.0072,1.0071,-1.0376,-0.4272,-8.8143,1.2904,4.0330,-0.0406,-0.0331,0.0413,0.4947,-0.3868,0.3775,0.6805,0.5608,0.4117,0.5865,-0.4145,-9.7500,-0.3400,-0.2500,0.0000,0.0000,0.0000,0.4169,0.6153,0.4616,0.4841,2.0600,9.4000,-1.7600,0.0000,-0.2000,0.0000,0.2944,0.5461,0.5017,0.6027,3.2200,9.2900,-0.8900,0.0000,-0.1000,0.0000,-0.5053,-0.4906,-0.5142,0.4893,-9.7900,-0.0400,0.0000,0.0000,0.0000,0.0000,-0.4291,-0.5717,0.4442,0.5399,-2.2300,9.4800,-0.5200,0.0000,0.0000,0.0000,0.5190,0.6442,0.1985,0.5253,4.6600,8.4900,0.8100,0.0000,0.0000,0.0000
525721,0,0,1,-22.1484,-15.2930,-10.2612,-3.4058,0.0128,-0.0073,-23.7085,-17.7759,0.0527,9.8138,0.0000,1.0071,-1.0376,-0.4578,0.0527,9.8138,0.0000,1.0071,-1.0376,-0.4578,-8.8143,1.2904,4.0330,-0.0406,-0.0331,0.0413,0.4947,-0.3868,0.3775,0.6805,0.5608,0.4117,0.5865,-0.4145,-9.7600,-0.3200,-0.2500,0.0000,0.0000,0.0000,0.4169,0.6153,0.4616,0.4841,2.0600,9.4000,-1.7600,0.0000,-0.2000,0.0000,0.2945,0.5462,0.5016,0.6026,3.1200,9.3000,-0.9300,0.0000,-0.1000,0.0000,-0.5053,-0.4905,-0.5142,0.4893,-9.8100,-0.0600,0.0000,0.0000,0.0000,0.0000,-0.4291,-0.5717,0.4442,0.5399,-2.2300,9.4800,-0.5200,0.0000,0.0000,0.0000,0.5191,0.6443,0.1986,0.5252,4.7000,8.4900,0.8200,0.0000,0.0000,0.0000
525722,0,0,1,-22.1484,-15.2930,-10.2612,-3.4058,0.0055,0.0128,-23.7085,-17.7759,0.0215,9.7588,0.0072,1.1292,-1.2512,-0.5188,0.0215,9.7588,0.0072,1.1292,-1.2512,-0.5188,-8.8943,1.3238,3.9475,-0.0535,-0.0316,0.0476,0.4946,-0.3868,0.3775,0.6807,0.5608,0.4117,0.5865,-0.4145,-9.7600,-0.3200,-0.2500,0.0000,0.0000,0.0000,0.4170,0.6154,0.4615,0.4839,2.0200,9.4200,-1.7500,0.0000,-0.2000,0.0000,0.2946,0.5463,0.5016,0.6025,3.0800,9.3100,-0.9300,0.0000,-0.1000,0.0000,-0.5053,-0.4905,-0.5142,0.4893,-9.8100,-0.0600,0.0000,0.0000,0.0000,0.0000,-0.4292,-0.5717,0.4442,0.5399,-2.2000,9.4900,-0.5200,0.0000,0.0000,0.0000,0.5191,0.6443,0.1986,0.5251,4.7200,8.5000,0.8100,0.0000,0.0000,0.0000
525723,0,0,1,-22.1484,-15.2930,-10.2612,-3.4058,-0.0073,0.0128,-23.7085,-17.7759,0.0455,9.7636,-0.0215,0.9460,-0.9460,-0.2441,0.0455,9.7636,-0.0215,0.9460,-0.9460,-0.2441,-8.8943,1.3238,3.9475,-0.0535,-0.0316,0.0476,0.4946,-0.3868,0.3775,0.6807,0.5608,0.4117,0.5866,-0.4145,-9.7500,-0.3000,-0.2500,0.0000,0.0000,0.0000,0.4171,0.6155,0.4614,0.4838,1.9800,9.4100,-1.7400,0.0000,-0.1000,0.0000,0.2947,0.5464,0.5016,0.6024,3.0700,9.2500,-0.9700,0.0000,-0.1000,0.0000,-0.5053,-0.4905,-0.5142,0.4894,-9.7900,-0.0700,-0.0200,0.0000,0.0000,0.0000,-0.4292,-0.5717,0.4441,0.5399,-2.2000,9.4700,-0.5300,0.0000,0.0000,0.0000,0.5191,0.6443,0.1986,0.5251,4.7200,8.5000,0.8100,0.0000,0.0000,0.0000
525724,0,0,1,-22.1704,-15.3149,-10.2612,-3.4058,-0.0146,0.0073,-23.7085,-17.7759,0.0000,9.7636,-0.0096,0.9460,-1.2817,-0.4883,0.0000,9.7636,-0.0096,0.9460,-1.2817,-0.4883,-8.8943,1.3238,3.9475,-0.0535,-0.0316,0.0476,0.4946,-0.3868,0.3775,0.6807,0.5608,0.4117,0.5866,-0.4145,-9.7400,-0.3100,-0.2400,0.0000,0.0000,0.0000,0.4172,0.6156,0.4612,0.4837,1.9500,9.4200,-1.7000,0.0000,-0.1000,0.0000,0.2947,0.5465,0.5015,0.6023,3.0900,9.2000,-1.0000,0.0000,-0.1000,0.0000,-0.5053,-0.4904,-0.5142,0.4894,-9.8000,-0.0600,-0.0400,0.0000,0.0000,0.0000,-0.4292,-0.5718,0.4441,0.5398,-2.1600,9.4900,-0.5100,0.0000,0.0000,0.0000,0.5191,0.6443,0.1987,0.5250,4.7000,8.5000,0.8100,0.0000,0.0000,0.0000
525725,0,0,1,-22.1704,-15.3149,-10.2612,-3.4058,0.0092,-0.0275,-23.7085,-17.7759,-0.0287,9.7157,-0.0024,1.1597,-1.0681,-0.2441,-0.0287,9.7157,-0.0024,1.1597,-1.0681,-0.2441,-8.8725,1.3395,3.9882,-0.0606,-0.0170,0.0530,0.4944,-0.3868,0.3774,0.6808,0.5608,0.4116,0.5866,-0.4144,-9.7100,-0.2700,-0.2300,0.0000,0.0000,0.0000,0.4173,0.6157,0.4611,0.4836,1.9100,9.4200,-1.6500,0.0000,-0.1000,0.0000,0.2947,0.5465,0.5015,0.6023,3.0900,9.2000,-1.0000,0.0000,-0.1000,0.0000,-0.5053,-0.4904,-0.5142,0.4894,-9.7800,-0.0900,-0.0400,0.0000,0.0000,0.0000,-0.4292,-0.5718,0.4441,0.5398,-2.1600,9.4900,-0.5100,0.0000,0.0000,0.0000,0.5192,0.6444,0.1988,0.5249,4.7100,8.5100,0.8400,0.0000,0.0000,0.0000
525726,0,0,1,-22.1704,-15.3149,-10.2612,-3.4058,-0.0128,-0.0256,-23.7085,-17.7759,0.0383,9.7252,0.0000,0.7324,-1.2207,-0.3662,0.0383,9.7252,0.0000,0.7324,-1.2207,-0.3662,-8.8725,1.3395,3.9882,-0.0606,-0.0170,0.0530,0.4944,-0.3868,0.3774,0.6808,0.5607,0.4116,0.5867,-0.4144,-9.7200,-0.2700,-0.2200,0.0000,0.0000,0.0000,0.4173,0.6157,0.4611,0.4836,1.9100,9.4200,-1.6500,0.0000,-0.1000,0.0000,0.2947,0.5466,0.5015,0.6022,3.1300,9.1700,-1.0300,0.0000,-0.1000,0.0000,-0.5053,-0.4904,-0.5142,0.4895,-9.7900,-0.1000,-0.0700,0.0000,0.0000,0.0000,-0.4293,-0.5718,0.4440,0.5398,-2.1400,9.4700,-0.4900,0.0000,0.0000,0.0000,0.5192,0.6444,0.1989,0.5248,4.7000,8.5600,0.8400,0.0000,0.0000,0.0000
525727,0,0,1,-22.1704,-15.3149,-10.2612,-3.4058,0.0128,-0.0018,-23.7085,-17.7759,0.0503,9.7061,-0.0455,0.9766,-1.1292,-0.1221,0.0503,9.7061,-0.0455,0.9766,-1.1292,-0.1221,-8.7990,1.3777,4.0538,-0.0503,-0.0124,0.0537,0.4943,-0.3868,0.3773,0.6810,0.5607,0.4116,0.5867,-0.4144,-9.7200,-0.2700,-0.2200,0.0000,0.0000,0.0000,0.4174,0.6158,0.4610,0.4835,1.8600,9.4200,-1.6300,0.0000,-0.1000,0.0000,0.2948,0.5467,0.5015,0.6021,3.1600,9.1100,-1.0200,0.0000,-0.1000,0.0000,-0.5053,-0.4904,-0.5142,0.4895,-9.7900,-0.1000,-0.0700,0.0000,0.0000,0.0000,-0.4293,-0.5718,0.4440,0.5398,-2.1300,9.5000,-0.4700,0.0000,0.0000,0.0000,0.5192,0.6444,0.1990,0.5247,4.7200,8.5700,0.8500,0.0000,0.0000,0.0000
525728,0,0,1,-22.1704,-15.3149,-10.2612,-3.4058,-0.0018,0.0092,-23.7085,-17.7759,0.0000,9.7061,-0.0120,1.1902,-1.1292,-0.2747,0.0000,9.7061,-0.0120,1.1902,-1.1292,-0.2747,-8.7990,1.3777,4.0538,-0.0503,-0.0124,0.0537,0.4943,-0.3868,0.3773,0.6810,0.5607,0.4116,0.5867,-0.4144,-9.7000,-0.3100,-0.1900,0.0000,0.0000,0.0000,0.4174,0.6159,0.4609,0.4835,1.8400,9.4200,-1.6300,0.0000,-0.1000,0.0000,0.2948,0.5468,0.5015,0.6020,3.2300,9.1100,-1.0700,0.0000,0.0000,0.0000,-0.5053,-0.4904,-0.5142,0.4895,-9.7900,-0.1000,-0.0700,0.0000,0.0000,0.0000,-0.4293,-0.5718,0.4439,0.5398,-2.0900,9.4900,-0.4500,0.0000,0.0000,0.0000,0.5192,0.6444,0.1990,0.5247,4.7200,8.5700,0.8500,0.0000,0.0000,0.0000
525729,0,0,1,-22.1484,-15.2930,-10.2393,-3.3838,0.0037,0.0128,-23.7085,-17.7759,0.0000,9.7157,-0.0335,0.9460,-1.2512,-0.3052,0.0000,9.7157,-0.0335,0.9460,-1.2512,-0.3052,-8.7990,1.3777,4.0538,-0.0503,-0.0124,0.0537,0.4943,-0.3868,0.3773,0.6810,0.5607,0.4116,0.5867,-0.4144,-9.7100,-0.2700,-0.2000,0.0000,0.0000,0.0000,0.4175,0.6160,0.4609,0.4834,1.8000,9.4100,-1.6300,0.0000,-0.1000,0.0000,0.2948,0.5469,0.5015,0.6019,3.3200,9.1000,-1.0100,0.0000,0.0000,0.0000,-0.5053,-0.4903,-0.5142,0.4895,-9.8000,-0.0700,-0.0800,0.0000,0.0000,0.0000,-0.4293,-0.5718,0.4439,0.5398,-2.0900,9.4800,-0.4300,0.0000,0.0000,0.0000,0.5192,0.6445,0.1990,0.5247,4.7100,8.5700,0.8300,0.0000,0.0000,0.0000
525730,0,0,1,-22.1484,-15.2930,-10.2393,-3.3838,-0.0073,-0.0146,-23.7085,-17.7759,0.0144,9.7061,0.0192,1.0071,-1.1902,-0.2441,0.0144,9.7061,0.0192,1.0071,-1.1902,-0.2441,-8.8751,1.3270,3.9436,-0.0502,-0.0062,0.0520,0.4942,-0.3868,0.3773,0.6811,0.5607,0.4116,0.5867,-0.4144,-9.7000,-0.2300,-0.1800,0.0000,0.0000,0.0000,0.4175,0.6161,0.4608,0.4833,1.7400,9.3800,-1.6700,0.0000,0.0000,0.0000,0.2948,0.5469,0.5015,0.6019,3.3200,9.1000,-1.0100,0.0000,0.0000,0.0000,-0.5053,-0.4903,-0.5142,0.4896,-9.7900,-0.0900,-0.1000,0.0000,0.0000,0.0000,-0.4293,-0.5718,0.4439,0.5398,-2.0900,9.4800,-0.4300,0.0000,0.0000,0.0000,0.5193,0.6445,0.1991,0.5246,4.7100,8.5900,0.8200,0.0000,0.0000,0.0000
525731,0,0,1,-22.1484,-15.2930,-10.2393,-3.3838,-0.0183,-0.0055,-23.7085,-17.7759,0.0144,9.7013,0.0072,1.1597,-1.0071,-0.2441,0.0144,9.7013,0.0072,1.1597,-1.0071,-0.2441,-8.8751,1.3270,3.9436,-0.0502,-0.0062,0.0520,0.4942,-0.3868,0.3773,0.6811,0.5606,0.4116,0.5868,-0.4144,-9.6700,-0.2700,-0.1400,0.0000,0.0000,0.0000,0.4175,0.6161,0.4608,0.4833,1.6800,9.3800,-1.7000,0.0000,0.0000,0.0000,0.2948,0.5470,0.5014,0.6018,3.4000,9.0700,-0.9900,0.0000,0.0000,0.0000,-0.5053,-0.4903,-0.5142,0.4896,-9.7800,-0.0800,-0.0900,0.0000,0.0000,0.0000,-0.4294,-0.5718,0.4439,0.5398,-2.0600,9.4800,-0.4300,0.0000,0.0000,0.0000,0.5193,0.6445,0.1992,0.5245,4.7000,8.6200,0.8600,0.0000,0.0000,0.0000
525732,0,0,1,-22.1704,-15.3149,-10.2393,-3.3838,0.0220,-0.0220,-23.7085,-17.7759,-0.0072,9.7252,-0.0096,1.1902,-1.1597,-0.3967,-0.0072,9.7252,-0.0096,1.1902,-1.1597,-0.3967,-8.8741,1.3547,3.8976,-0.0503,0.0171,0.0556,0.4940,-0.3868,0.3772,0.6812,0.5606,0.4116,0.5868,-0.4144,-9.6700,-0.2700,-0.1400,0.0000,0.0000,0.0000,0.4175,0.6161,0.4608,0.4833,1.6800,9.3800,-1.7000,0.0000,0.0000,0.0000,0.2948,0.5471,0.5014,0.6018,3.4500,9.0100,-1.0100,0.0000,-0.1000,0.0000,-0.5053,-0.4903,-0.5142,0.4896,-9.7800,-0.0800,-0.0900,0.0000,0.0000,0.0000,-0.4294,-0.5719,0.4438,0.5398,-2.0600,9.5300,-0.4200,0.0000,0.0000,0.0000,0.5193,0.6445,0.1992,0.5245,4.7000,8.6200,0.8600,0.0000,0.0000,0.0000
525733,0,0,1,-22.1704,-15.3149,-10.2393,-3.3838,-0.0055,0.0183,-23.7085,-17.7759,0.0000,9.7061,-0.0239,0.7935,-1.2817,-0.4272,0.0000,9.7061,-0.0239,0.7935,-1.2817,-0.4272,-8.8741,1.3547,3.8976,-0.0503,0.0171,0.0556,0.4940,-0.3868,0.3772,0.6812,0.5606,0.4116,0.5868,-0.4144,-9.6900,-0.2400,-0.1500,0.0000,0.0000,0.0000,0.4175,0.6162,0.4607,0.4833,1.6100,9.3500,-1.7600,0.0000,0.0000,0.0000,0.2949,0.5472,0.5014,0.6017,3.4900,8.9700,-1.0200,0.0000,-0.1000,0.0000,-0.5053,-0.4902,-0.5142,0.4897,-9.7700,-0.0700,-0.1000,0.0000,0.0000,0.0000,-0.4294,-0.5719,0.4438,0.5398,-2.0400,9.5300,-0.4400,0.0000,0.0000,0.0000,0.5193,0.6445,0.1992,0.5244,4.6300,8.5800,0.8500,0.0000,0.0000,0.0000
525734,0,0,1,-22.1704,-15.3149,-10.2393,-3.3838,0.0293,-0.0238,-23.7085,-17.7759,0.0144,9.6678,-0.0479,1.1902,-1.0986,-0.3662,0.0144,9.6678,-0.0479,1.1902,-1.0986,-0.3662,-8.7520,1.3356,3.9764,-0.0482,0.0276,0.0549,0.4939,-0.3869,0.3772,0.6813,0.5606,0.4116,0.5868,-0.4145,-9.6900,-0.2400,-0.1400,0.0000,0.0000,0.0000,0.4175,0.6162,0.4607,0.4832,1.5600,9.3400,-1.8300,0.0000,0.0000,0.0000,0.2950,0.5474,0.5013,0.6016,3.4900,8.9600,-1.0400,0.0000,-0.1000,0.0000,-0.5053,-0.4902,-0.5141,0.4897,-9.7900,-0.0800,-0.0800,0.0000,0.0000,0.0000,-0.4295,-0.5719,0.4437,0.5398,-2.0200,9.5300,-0.4300,0.0000,0.0000,0.0000,0.5194,0.6445,0.1993,0.5243,4.6000,8.5800,0.8900,0.0000,0.0000,0.0000
525735,0,0,1,-22.1704,-15.3149,-10.2393,-3.3838,-0.0110,-0.0037,-23.7085,-17.7759,0.0000,9.7348,0.0000,1.1292,-1.2512,-0.4272,0.0000,9.7348,0.0000,1.1292,-1.2512,-0.4272,-8.7520,1.3356,3.9764,-0.0482,0.0276,0.0549,0.4939,-0.3869,0.3772,0.6813,0.5606,0.4116,0.5868,-0.4145,-9.6700,-0.2400,-0.1500,0.0000,0.0000,0.0000,0.4175,0.6162,0.4607,0.4832,1.4900,9.3100,-1.8500,0.0000,0.0000,0.0000,0.2950,0.5474,0.5013,0.6016,3.4900,8.9600,-1.0400,0.0000,-0.1000,0.0000,-0.5053,-0.4902,-0.5141,0.4898,-9.7600,-0.0900,-0.0600,0.0000,0.0000,0.0000,-0.4295,-0.5719,0.4437,0.5398,-2.0200,9.5300,-0.4300,0.0000,0.0000,0.0000,0.5194,0.6445,0.1993,0.5243,4.6100,8.5500,0.8700,0.0000,0.0000,0.0000
525736,0,0,1,-22.1704,-15.2930,-10.2393,-3.3618,-0.0018,0.0165,-23.7085,-17.7759,-0.0024,9.6917,0.0335,1.1292,-1.2512,-0.6714,-0.0024,9.6917,0.0335,1.1292,-1.2512,-0.6714,-8.7520,1.3356,3.9764,-0.0482,0.0276,0.0549,0.4939,-0.3869,0.3772,0.6813,0.5605,0.4116,0.5868,-0.4145,-9.6700,-0.2400,-0.1500,0.0000,0.0000,0.0000,0.4175,0.6162,0.4607,0.4832,1.4900,9.3100,-1.8500,0.0000,0.0000,0.0000,0.2950,0.5475,0.5012,0.6015,3.5000,8.9500,-1.0800,0.0000,-0.1000,0.0000,-0.5052,-0.4902,-0.5141,0.4898,-9.7600,-0.0800,-0.0500,0.0000,0.0000,0.0000,-0.4295,-0.5719,0.4437,0.5398,-2.0100,9.5300,-0.4300,0.0000,0.0000,0.0000,0.5194,0.6446,0.1994,0.5242,4.5700,8.5400,0.8300,0.0000,0.0000,0.0000
525737,0,0,1,-22.1484,-15.2930,-10.2173,-3.3618,-0.0092,0.0183,-23.7085,-17.7759,0.0766,9.7157,-0.0192,1.1292,-0.9460,-0.6104,0.0766,9.7157,-0.0192,1.1292,-0.9460,-0.6104,-8.6983,1.3092,3.9799,-0.0465,0.0175,0.0593,0.4937,-0.3869,0.3772,0.6814,0.5605,0.4116,0.5868,-0.4145,-9.6700,-0.2400,-0.1500,0.0000,0.0000,0.0000,0.4175,0.6162,0.4607,0.4832,1.4200,9.2800,-1.9200,0.0000,0.0000,0.0000,0.2951,0.5476,0.5011,0.6014,3.4800,8.9300,-1.1200,0.0000,-0.1000,0.0000,-0.5052,-0.4902,-0.5141,0.4898,-9.7600,-0.0800,-0.0500,0.0000,0.0000,0.0000,-0.4295,-0.5719,0.4436,0.5398,-2.0400,9.5300,-0.4500,0.0000,0.0000,0.0000,0.5194,0.6446,0.1994,0.5242,4.5700,8.5400,0.8300,0.0000,0.0000,0.0000
525738,0,0,1,-22.1484,-15.2930,-10.2173,-3.3618,0.0037,0.0220,-23.7085,-17.7759,0.0048,9.6534,0.0048,1.2512,-1.2207,-0.2747,0.0048,9.6534,0.0048,1.2512,-1.2207,-0.2747,-8.6983,1.3092,3.9799,-0.0465,0.0175,0.0593,0.4937,-0.3869,0.3772,0.6814,0.5605,0.4116,0.5869,-0.4145,-9.6800,-0.2500,-0.1600,0.0000,0.0000,0.0000,0.4175,0.6163,0.4607,0.4832,1.4100,9.2900,-1.9400,0.0000,0.0000,0.0000,0.2952,0.5477,0.5010,0.6013,3.4500,8.9200,-1.1600,0.0000,-0.1000,0.0000,-0.5052,-0.4902,-0.5141,0.4899,-9.7600,-0.1100,-0.0700,0.0000,0.0000,0.0000,-0.4295,-0.5719,0.4436,0.5398,-2.0400,9.5300,-0.4500,0.0000,0.0000,0.0000,0.5195,0.6446,0.1994,0.5241,4.5500,8.5500,0.8200,0.0000,0.0000,0.0000
525739,0,0,1,-22.1704,-15.3149,-10.2173,-3.3618,-0.0092,0.0201,-23.7085,-17.7759,0.0263,9.7013,-0.0192,1.1292,-1.3428,-0.4883,0.0263,9.7013,-0.0192,1.1292,-1.3428,-0.4883,-8.6405,1.2804,3.9853,-0.0643,0.0078,0.0624,0.4935,-0.3870,0.3772,0.6815,0.5604,0.4117,0.5869,-0.4145,-9.7200,-0.2600,-0.1900,0.0000,0.0000,0.0000,0.4175,0.6163,0.4607,0.4832,1.3700,9.2800,-1.9600,0.0000,0.0000,0.0000,0.2953,0.5479,0.5009,0.6012,3.4300,8.9300,-1.1800,0.0000,-0.1000,0.0000,-0.5052,-0.4902,-0.5141,0.4899,-9.7500,-0.1400,-0.0600,0.0000,0.0000,0.0000,-0.4295,-0.5720,0.4436,0.5398,-2.0500,9.5100,-0.4600,0.0000,0.0000,0.0000,0.5195,0.6446,0.1995,0.5240,4.5700,8.5600,0.8000,0.0000,0.0000,0.0000
525740,0,0,1,-22.1704,-15.3149,-10.2173,-3.3618,0.0165,0.0000,-23.7085,-17.7759,-0.0072,9.7923,0.0335,1.2207,-1.1597,-0.6104,-0.0072,9.7923,0.0335,1.2207,-1.1597,-0.6104,-8.6405,1.2804,3.9853,-0.0643,0.0078,0.0624,0.4935,-0.3870,0.3772,0.6815,0.5604,0.4117,0.5869,-0.4145,-9.7000,-0.2500,-0.2100,0.0000,0.0000,0.0000,0.4175,0.6163,0.4607,0.4832,1.3500,9.2900,-1.9500,0.0000,0.0000,0.0000,0.2953,0.5479,0.5009,0.6012,3.4300,8.9300,-1.1800,0.0000,-0.1000,0.0000,-0.5052,-0.4902,-0.5141,0.4900,-9.7300,-0.1300,-0.0600,0.0000,0.0000,0.0000,-0.4295,-0.5720,0.4436,0.5398,-2.0500,9.5100,-0.4600,0.0000,0.0000,0.0000,0.5195,0.6447,0.1995,0.5240,4.5400,8.5800,0.8100,0.0000,0.0000,0.0000
525741,0,0,1,-22.1704,-15.3149,-10.2173,-3.3618,0.0110,0.0165,-23.7085,-17.7759,-0.0096,9.7109,-0.0287,1.2817,-1.1902,-0.2441,-0.0096,9.7109,-0.0287,1.2817,-1.1902,-0.2441,-8.6405,1.2804,3.9853,-0.0643,0.0078,0.0624,0.4935,-0.3870,0.3772,0.6815,0.5604,0.4117,0.5869,-0.4145,-9.7300,-0.2600,-0.2300,0.0000,0.0000,0.0000,0.4175,0.6163,0.4607,0.4832,1.3500,9.2900,-1.9500,0.0000,0.0000,0.0000,0.2954,0.5480,0.5008,0.6012,3.3700,8.9000,-1.1700,0.0000,-0.1000,0.0000,-0.5051,-0.4902,-0.5141,0.4900,-9.7000,-0.1300,-0.0300,0.0000,0.0000,0.0000,-0.4296,-0.5720,0.4435,0.5398,-2.0600,9.5500,-0.4600,0.0000,0.0000,0.0000,0.5195,0.6447,0.1996,0.5239,4.5600,8.6200,0.8800,0.0000,0.0000,0.0000
525742,0,0,1,-22.1704,-15.3149,-10.2173,-3.3618,-0.0073,-0.0256,-23.7085,-17.7759,0.0263,9.8354,0.0024,1.0376,-1.3733,-0.5798,0.0263,9.8354,0.0024,1.0376,-1.3733,-0.5798,-8.5828,1.2843,4.0118,-0.0709,-0.0155,0.0698,0.4933,-0.3870,0.3771,0.6816,0.5604,0.4117,0.5869,-0.4145,-9.7300,-0.2600,-0.2300,0.0000,0.0000,0.0000,0.4175,0.6162,0.4608,0.4832,1.3300,9.2700,-1.9600,0.0000,0.0000,0.0000,0.2955,0.5481,0.5007,0.6011,3.3200,8.8700,-1.2200,0.0000,-0.1000,0.0000,-0.5051,-0.4902,-0.5140,0.4900,-9.6900,-0.1200,0.0100,0.0000,0.0000,0.0000,-0.4296,-0.5720,0.4435,0.5398,-2.0600,9.5400,-0.4400,0.0000,0.0000,0.0000,0.5195,0.6447,0.1996,0.5238,4.5300,8.6300,0.8800,0.0000,0.0000,0.0000
525743,0,0,1,-22.1704,-15.2930,-10.2173,-3.3398,0.0092,-0.0092,-23.7085,-17.7759,0.0335,9.7205,-0.0144,1.3123,-1.2207,-0.7629,0.0335,9.7205,-0.0144,1.3123,-1.2207,-0.7629,-8.5828,1.2843,4.0118,-0.0709,-0.0155,0.0698,0.4933,-0.3870,0.3771,0.6816,0.5603,0.4117,0.5869,-0.4146,-9.7500,-0.2600,-0.2600,0.0000,0.0000,0.0000,0.4175,0.6162,0.4608,0.4832,1.3100,9.2800,-1.9600,0.0000,0.0000,0.0000,0.2955,0.5482,0.5006,0.6011,3.2600,8.8900,-1.2500,0.0000,-0.1000,0.0000,-0.5051,-0.4902,-0.5140,0.4900,-9.6900,-0.1200,0.0100,0.0000,0.0000,0.0000,-0.4296,-0.5720,0.4434,0.5398,-2.0700,9.5400,-0.4400,0.0000,0.0000,0.0000,0.5195,0.6447,0.1996,0.5238,4.5300,8.6300,0.8800,0.0000,0.0000,0.0000
525744,0,0,1,-22.1704,-15.2930,-10.2173,-3.3398,-0.0146,0.0256,-23.7085,-17.7759,0.0072,9.8378,0.0335,1.2207,-1.2207,-0.5798,0.0072,9.8378,0.0335,1.2207,-1.2207,-0.5798,-8.6548,1.2697,3.9504,-0.0772,-0.0315,0.0717,0.4932,-0.3870,0.3770,0.6818,0.5603,0.4117,0.5869,-0.4146,-9.7500,-0.2700,-0.2600,0.0000,0.0000,0.0000,0.4175,0.6162,0.4608,0.4832,1.2900,9.2800,-1.9700,0.0000,0.0000,0.0000,0.2956,0.5483,0.5005,0.6011,3.1800,8.8700,-1.2700,0.0000,-0.1000,0.0000,-0.5051,-0.4902,-0.5140,0.4901,-9.6800,-0.1300,0.0200,0.0000,0.0000,0.0000,-0.4296,-0.5720,0.4434,0.5398,-2.0900,9.5300,-0.4400,0.0000,0.0000,0.0000,0.5195,0.6447,0.1996,0.5238,4.5100,8.6300,0.9000,0.0000,0.0000,0.0000
525745,0,0,1,-22.1484,-15.2930,-10.1953,-3.3398,-0.0037,-0.0256,-23.7085,-17.7759,0.0407,9.7683,0.0168,1.4343,-1.3123,-0.5188,0.0407,9.7683,0.0168,1.4343,-1.3123,-0.5188,-8.6548,1.2697,3.9504,-0.0772,-0.0315,0.0717,0.4932,-0.3870,0.3770,0.6818,0.5603,0.4117,0.5869,-0.4146,-9.7900,-0.2900,-0.2900,0.0000,0.0000,0.0000,0.4175,0.6161,0.4609,0.4832,1.2900,9.2900,-1.9600,0.0000,0.0000,0.0000,0.2956,0.5483,0.5005,0.6011,3.1800,8.8700,-1.2700,0.0000,-0.1000,0.0000,-0.5051,-0.4902,-0.5140,0.4902,-9.7200,-0.1300,0.0300,0.0000,0.0000,0.0000,-0.4296,-0.5720,0.4434,0.5398,-2.0900,9.5500,-0.4700,0.0000,0.0000,0.0000,0.5196,0.6448,0.1997,0.5237,4.4800,8.6400,0.8900,0.0000,0.0000,0.0000
525746,0,0,1,-22.1704,-15.3149,-10.1953,-3.3398,-0.0128,0.0092,-23.7085,-17.7759,0.0192,9.7971,0.0144,1.1902,-1.5259,-0.5188,0.0192,9.7971,0.0144,1.1902,-1.5259,-0.5188,-8.6548,1.2697,3.9504,-0.0772,-0.0315,0.0717,0.4932,-0.3870,0.3770,0.6818,0.5602,0.4117,0.5869,-0.4146,-9.8100,-0.3400,-0.3200,0.0000,0.0000,0.0000,0.4175,0.6161,0.4609,0.4832,1.2900,9.2900,-1.9600,0.0000,0.0000,0.0000,0.2956,0.5484,0.5003,0.6011,3.1700,8.8900,-1.2800,0.0000,0.0000,0.0000,-0.5051,-0.4902,-0.5140,0.4902,-9.7200,-0.1300,0.0300,0.0000,0.0000,0.0000,-0.4296,-0.5720,0.4434,0.5398,-2.0900,9.5500,-0.4700,0.0000,0.0000,0.0000,0.5196,0.6448,0.1997,0.5236,4.4700,8.6100,0.8800,0.0000,0.0000,0.0000
525747,0,0,1,-22.1704,-15.3149,-10.1953,-3.3398,-0.0055,-0.0110,-23.7085,-17.7759,0.0431,9.8474,-0.0072,1.6174,-1.0986,-0.3662,0.0431,9.8474,-0.0072,1.6174,-1.0986,-0.3662,-8.6642,1.2646,4.0084,-0.0820,-0.0389,0.0756,0.4930,-0.3869,0.3769,0.6820,0.5602,0.4117,0.5869,-0.4146,-9.8100,-0.3400,-0.3200,0.0000,0.0000,0.0000,0.4175,0.6161,0.4609,0.4832,1.3000,9.3000,-1.9700,0.0000,0.0000,0.0000,0.2957,0.5485,0.5002,0.6011,3.1500,8.9200,-1.2600,0.0000,0.0000,0.0000,-0.5051,-0.4901,-0.5140,0.4902,-9.7400,-0.1300,0.0200,0.0000,0.0000,0.0000,-0.4296,-0.5720,0.4434,0.5398,-2.0900,9.5500,-0.4700,0.0000,0.0000,0.0000,0.5196,0.6448,0.1997,0.5236,4.4500,8.6000,0.8200,0.0000,0.0000,0.0000
525748,0,0,1,-22.1704,-15.3149,-10.1953,-3.3398,-0.0110,-0.0275,-23.7085,-17.7759,0.0742,9.8641,-0.0168,1.4648,-1.5259,-0.3357,0.0742,9.8641,-0.0168,1.4648,-1.5259,-0.3357,-8.6642,1.2646,4.0084,-0.0820,-0.0389,0.0756,0.4930,-0.3869,0.3769,0.6820,0.5602,0.4117,0.5870,-0.4146,-9.8300,-0.3300,-0.3600,0.0000,0.0000,0.0000,0.4175,0.6160,0.4610,0.4833,1.3000,9.3300,-1.9900,0.0000,0.0000,0.0000,0.2957,0.5485,0.5001,0.6012,3.1300,8.9200,-1.2500,0.0000,0.0000,0.0000,-0.5051,-0.4901,-0.5139,0.4903,-9.7400,-0.1200,0.0400,0.0000,0.0000,0.0000,-0.4297,-0.5720,0.4433,0.5398,-2.0900,9.5500,-0.4800,0.0000,0.0000,0.0000,0.5196,0.6448,0.1997,0.5236,4.4500,8.6000,0.8200,0.0000,0.0000,0.0000
525749,0,0,1,-22.1704,-15.2930,-10.1953,-3.3179,0.0165,0.0165,-23.7085,-17.7759,0.0383,9.8162,-0.0287,1.5869,-1.3428,-0.3662,0.0383,9.8162,-0.0287,1.5869,-1.3428,-0.3662,-8.6642,1.2646,4.0084,-0.0820,-0.0389,0.0756,0.4930,-0.3869,0.3769,0.6820,0.5602,0.4118,0.5870,-0.4146,-9.8200,-0.3200,-0.3600,0.0000,0.0000,0.0000,0.4174,0.6160,0.4610,0.4833,1.3300,9.3800,-1.9900,0.0000,0.0000,0.0000,0.2958,0.5486,0.4999,0.6013,3.1400,8.9400,-1.2400,0.0000,0.0000,0.0000,-0.5050,-0.4901,-0.5139,0.4903,-9.7400,-0.1400,0.0400,0.0000,0.0000,0.0000,-0.4297,-0.5720,0.4433,0.5398,-2.1100,9.5800,-0.4500,0.0000,0.0000,0.0000,0.5196,0.6449,0.1998,0.5235,4.4500,8.6300,0.7900,0.0000,0.0000,0.0000
525750,0,0,1,-22.1704,-15.2930,-10.1953,-3.3179,-0.0018,0.0128,-23.7085,-17.7759,0.0383,9.8713,-0.0024,1.2817,-1.4343,-0.4272,0.0383,9.8713,-0.0024,1.2817,-1.4343,-0.4272,-8.6411,1.2975,4.0856,-0.0703,-0.0570,0.0727,0.4929,-0.3869,0.3768,0.6822,0.5602,0.4118,0.5870,-0.4146,-9.8300,-0.3300,-0.3600,0.0000,0.0000,0.0000,0.4174,0.6159,0.4611,0.4833,1.3300,9.4000,-2.0000,0.0000,0.0000,0.0000,0.2958,0.5486,0.4999,0.6013,3.1400,8.9400,-1.2400,0.0000,0.0000,0.0000,-0.5050,-0.4901,-0.5138,0.4904,-9.7800,-0.1500,0.0000,0.0000,0.0000,0.0000,-0.4297,-0.5720,0.4433,0.5398,-2.1100,9.5900,-0.4400,0.0000,0.0000,0.0000,0.5196,0.6449,0.1998,0.5235,4.4500,8.6600,0.8300,0.0000,0.0000,0.0000
525751,0,0,1,-22.1704,-15.2930,-10.1953,-3.3179,-0.0055,-0.0073,-23.7085,-17.7759,-0.0072,9.8090,-0.0694,1.6479,-1.5259,-0.2136,-0.0072,9.8090,-0.0694,1.6479,-1.5259,-0.2136,-8.6411,1.2975,4.0856,-0.0703,-0.0570,0.0727,0.4929,-0.3869,0.3768,0.6822,0.5601,0.4118,0.5870,-0.4146,-9.8700,-0.3300,-0.3900,0.0000,0.0000,0.0000,0.4174,0.6159,0.4611,0.4833,1.3300,9.4000,-2.0000,0.0000,0.0000,0.0000,0.2958,0.5486,0.4998,0.6013,3.1400,8.9700,-1.2200,-0.1000,0.0000,0.0000,-0.5050,-0.4901,-0.5138,0.4905,-9.8100,-0.1800,0.0000,0.0000,0.0000,0.0000,-0.4297,-0.5720,0.4433,0.5398,-2.1100,9.5900,-0.4400,0.0000,0.0000,0.0000,0.5196,0.6449,0.1998,0.5234,4.4400,8.7500,0.8500,0.0000,0.0000,0.0000
525752,0,0,1,-22.1704,-15.3149,-10.1733,-3.3179,-0.0165,0.0128,-23.7085,-17.7759,0.1173,9.9168,-0.0239,1.5564,-1.5564,-0.4578,0.1173,9.9168,-0.0239,1.5564,-1.5564,-0.4578,-8.6568,1.3001,4.1051,-0.0663,-0.0775,0.0676,0.4927,-0.3868,0.3766,0.6824,0.5601,0.4118,0.5870,-0.4146,-9.8700,-0.3300,-0.3900,0.0000,0.0000,0.0000,0.4174,0.6158,0.4612,0.4833,1.3600,9.4100,-2.0300,0.0000,0.0000,0.0000,0.2958,0.5486,0.4996,0.6014,3.1300,9.0000,-1.2300,-0.1000,0.0000,0.0000,-0.5050,-0.4901,-0.5138,0.4905,-9.8100,-0.1800,0.0000,0.0000,0.0000,0.0000,-0.4297,-0.5720,0.4433,0.5398,-2.1000,9.6000,-0.4400,0.0000,0.0000,0.0000,0.5196,0.6450,0.1999,0.5233,4.4300,8.7500,0.8500,0.0000,0.0000,0.0000
525753,0,0,1,-22.1704,-15.3149,-10.1733,-3.3179,-0.0018,-0.0128,-23.7085,-17.7759,-0.0096,9.7731,-0.0862,1.5259,-1.6479,-0.3052,-0.0096,9.7731,-0.0862,1.5259,-1.6479,-0.3052,-8.6568,1.3001,4.1051,-0.0663,-0.0775,0.0676,0.4927,-0.3868,0.3766,0.6824,0.5601,0.4118,0.5870,-0.4146,-9.8300,-0.3300,-0.4200,0.0000,0.0000,0.0000,0.4174,0.6158,0.4613,0.4834,1.4000,9.4300,-2.0500,0.0000,0.0000,0.0000,0.2958,0.5486,0.4995,0.6016,3.1900,9.0200,-1.2200,-0.1000,0.0000,0.1000,-0.5050,-0.4901,-0.5138,0.4905,-9.8100,-0.1400,-0.0300,0.0000,0.0000,0.0000,-0.4297,-0.5720,0.4433,0.5399,-2.0800,9.6100,-0.4000,0.0000,0.0000,0.0000,0.5196,0.6450,0.1999,0.5233,4.4300,8.7500,0.8500,0.0000,0.0000,0.0000
525754,0,0,1,-22.1704,-15.2930,-10.1733,-3.2959,0.0165,-0.0073,-23.7085,-17.7759,0.0263,9.8665,-0.0934,1.4648,-1.5564,-0.3967,0.0263,9.8665,-0.0934,1.4648,-1.5564,-0.3967,-8.6568,1.3001,4.1051,-0.0663,-0.0775,0.0676,0.4927,-0.3868,0.3766,0.6824,0.5601,0.4118,0.5871,-0.4146,-9.8700,-0.3500,-0.4100,0.0000,0.0000,0.0000,0.4174,0.6157,0.4614,0.4834,1.4500,9.4700,-2.0700,0.0000,0.0000,0.0000,0.2957,0.5486,0.4993,0.6017,3.2100,9.0900,-1.1900,-0.1000,0.0000,0.1000,-0.5050,-0.4901,-0.5137,0.4906,-9.7900,-0.1600,0.0000,0.0000,0.0000,0.0000,-0.4297,-0.5720,0.4433,0.5399,-2.0800,9.6200,-0.4100,0.0000,0.0000,0.0000,0.5196,0.6450,0.1999,0.5232,4.4100,8.7800,0.8500,0.0000,0.0000,0.0000
525755,0,0,1,-22.1704,-15.2930,-10.1733,-3.2959,0.0073,0.0037,-23.7085,-17.7759,-0.0263,9.8090,-0.0311,1.6479,-1.4648,-0.5798,-0.0263,9.8090,-0.0311,1.6479,-1.4648,-0.5798,-8.7031,1.2820,4.0542,-0.0564,-0.0987,0.0660,0.4927,-0.3866,0.3765,0.6827,0.5601,0.4118,0.5871,-0.4146,-9.8300,-0.3400,-0.4200,0.0000,0.0000,0.0000,0.4174,0.6156,0.4615,0.4835,1.5400,9.5000,-2.1300,0.0000,0.1000,0.0000,0.2957,0.5486,0.4993,0.6017,3.2100,9.0900,-1.1900,-0.1000,0.0000,0.1000,-0.5050,-0.4901,-0.5137,0.4907,-9.8000,-0.1500,-0.0400,0.0000,0.0000,0.0000,-0.4297,-0.5720,0.4433,0.5399,-2.0500,9.6100,-0.4000,0.0000,0.0000,0.0000,0.5197,0.6451,0.1999,0.5231,4.4400,8.7500,0.8300,0.0000,0.0000,0.0000
525756,0,0,1,-22.1704,-15.2930,-10.1733,-3.2959,-0.0165,-0.0183,-23.7085,-17.7759,0.0503,9.8617,-0.1030,1.8005,-1.4954,-0.5188,0.0503,9.8617,-0.1030,1.8005,-1.4954,-0.5188,-8.7031,1.2820,4.0542,-0.0564,-0.0987,0.0660,0.4927,-0.3866,0.3765,0.6827,0.5601,0.4118,0.5871,-0.4145,-9.8150,-0.3250,-0.4000,0.0000,0.0000,0.0000,0.4174,0.6156,0.4615,0.4835,1.5400,9.5000,-2.1300,0.0000,0.1000,0.0000,0.2957,0.5486,0.4992,0.6018,3.2000,9.1100,-1.2200,-0.1000,0.0000,0.1000,-0.5050,-0.4901,-0.5136,0.4907,-9.8000,-0.1300,-0.0400,0.0000,0.0000,0.0000,-0.4297,-0.5720,0.4433,0.5399,-2.0500,9.6100,-0.4000,0.0000,0.0000,0.0000,0.5197,0.6451,0.1998,0.5231,4.4500,8.7500,0.8200,0.0000,0.0000,0.0000
525757,0,0,1,-22.1704,-15.2930,-10.1733,-3.2959,-0.0055,0.0201,-23.7085,-17.7759,-0.0048,9.7300,-0.0694,1.4038,-1.8311,-0.5188,-0.0048,9.7300,-0.0694,1.4038,-1.8311,-0.5188,-8.7178,1.2959,4.0400,-0.0558,-0.1126,0.0598,0.4926,-0.3865,0.3763,0.6829,0.5601,0.4118,0.5871,-0.4145,-9.8000,-0.3100,-0.3800,0.0000,0.0000,0.0000,0.4173,0.6155,0.4616,0.4835,1.6600,9.5100,-2.1600,0.0000,0.1000,0.0000,0.2956,0.5486,0.4990,0.6020,3.2100,9.1200,-1.2500,0.0000,0.0000,0.1000,-0.5050,-0.4901,-0.5136,0.4907,-9.8000,-0.1300,-0.0400,0.0000,0.0000,0.0000,-0.4297,-0.5720,0.4433,0.5399,-2.0700,9.6100,-0.3900,0.0000,0.0000,0.0000,0.5197,0.6451,0.1998,0.5231,4.4500,8.7500,0.8200,0.0000,0.0000,0.0000
525758,0,0,1,-22.1704,-15.2930,-10.1733,-3.2959,-0.0165,-0.0073,-23.7085,-17.7759,0.0263,9.7348,-0.0670,1.5869,-1.5869,-0.5188,0.0263,9.7348,-0.0670,1.5869,-1.5869,-0.5188,-8.7178,1.2959,4.0400,-0.0558,-0.1126,0.0598,0.4926,-0.3865,0.3763,0.6829,0.5601,0.4118,0.5872,-0.4145,-9.7800,-0.2900,-0.3700,0.0000,0.0000,0.0000,0.4173,0.6154,0.4617,0.4836,1.7500,9.5200,-2.1700,0.0000,0.1000,0.0000,0.2956,0.5486,0.4989,0.6021,3.1900,9.1500,-1.2200,0.0000,0.0000,0.1000,-0.5050,-0.4900,-0.5136,0.4908,-9.8100,-0.1600,-0.0400,0.0000,0.0000,0.0000,-0.4296,-0.5720,0.4433,0.5400,-2.0800,9.6100,-0.3900,0.0000,0.0000,0.0000,0.5197,0.6452,0.1998,0.5230,4.4600,8.7200,0.8000,0.0000,0.0000,0.0000
525759,0,0,1,-22.1704,-15.3149,-10.1514,-3.2959,-0.0037,-0.0092,-23.7085,-17.7759,0.0192,9.7205,-0.0215,1.4343,-1.1902,-0.4883,0.0192,9.7205,-0.0215,1.4343,-1.1902,-0.4883,-8.7178,1.2959,4.0400,-0.0558,-0.1126,0.0598,0.4926,-0.3865,0.3763,0.6829,0.5600,0.4117,0.5872,-0.4145,-9.7500,-0.2900,-0.3600,0.0000,0.0000,0.0000,0.4172,0.6152,0.4619,0.4836,1.8400,9.5300,-2.1700,0.0000,0.1000,0.0000,0.2955,0.5487,0.4988,0.6022,3.2100,9.1600,-1.1400,0.0000,0.0000,0.1000,-0.5050,-0.4900,-0.5136,0.4909,-9.8000,-0.1500,-0.0500,0.0000,0.0000,0.0000,-0.4296,-0.5719,0.4433,0.5400,-2.0900,9.5800,-0.3800,0.0000,0.0000,0.0000,0.5198,0.6452,0.1998,0.5229,4.5000,8.7100,0.8300,0.0000,0.0000,0.0000
525760,0,0,1,-22.1704,-15.2930,-10.1514,-3.2739,0.0146,0.0092,-23.7085,-17.7759,-0.0024,9.7492,-0.0862,1.4648,-1.5259,-0.5493,-0.0024,9.7492,-0.0862,1.4648,-1.5259,-0.5493,-8.7450,1.3158,4.0330,-0.0536,-0.1170,0.0591,0.4926,-0.3863,0.3761,0.6831,0.5600,0.4117,0.5872,-0.4145,-9.7500,-0.2900,-0.3500,0.0000,0.0000,0.0000,0.4172,0.6151,0.4620,0.4837,1.9500,9.5100,-2.1300,0.0000,0.1000,0.0000,0.2954,0.5487,0.4986,0.6023,3.2300,9.0700,-1.1300,0.0000,0.0000,0.1000,-0.5050,-0.4900,-0.5135,0.4909,-9.8400,-0.1600,-0.0800,0.0000,0.0000,0.0000,-0.4296,-0.5719,0.4433,0.5400,-2.0900,9.5800,-0.3800,0.0000,0.0000,0.0000,0.5198,0.6453,0.1998,0.5228,4.5100,8.6900,0.8500,0.0000,0.0000,0.0000
525761,0,0,1,-22.1704,-15.2930,-10.1514,-3.2739,-0.0055,-0.0201,-23.7085,-17.7759,0.0000,9.7540,-0.0263,1.5869,-1.1902,-0.4272,0.0000,9.7540,-0.0263,1.5869,-1.1902,-0.4272,-8.7450,1.3158,4.0330,-0.0536,-0.1170,0.0591,0.4926,-0.3863,0.3761,0.6831,0.5600,0.4117,0.5872,-0.4145,-9.7500,-0.2900,-0.3500,0.0000,0.0000,0.0000,0.4172,0.6151,0.4620,0.4837,1.9500,9.5100,-2.1300,0.0000,0.1000,0.0000,0.2954,0.5487,0.4986,0.6023,3.2300,9.0700,-1.1300,0.0000,0.0000,0.1000,-0.5050,-0.4900,-0.5135,0.4910,-9.8300,-0.1400,-0.0900,0.0000,0.0000,0.0000,-0.4296,-0.5719,0.4433,0.5401,-2.0600,9.5900,-0.4000,0.0000,0.0000,0.0000,0.5198,0.6454,0.1997,0.5227,4.5700,8.6800,0.8200,0.0000,0.0000,0.0000
525762,0,0,1,-22.1704,-15.2930,-10.1514,-3.2739,0.0183,-0.0037,-23.7085,-17.7759,0.0239,9.7300,-0.0838,1.4343,-1.5869,-0.2441,0.0239,9.7300,-0.0838,1.4343,-1.5869,-0.2441,-8.7960,1.3014,3.9635,-0.0602,-0.1226,0.0570,0.4925,-0.3861,0.3759,0.6834,0.5600,0.4117,0.5873,-0.4145,-9.7200,-0.2700,-0.2900,0.0000,0.0000,0.0000,0.4171,0.6150,0.4622,0.4837,2.0300,9.4900,-2.0800,0.0000,0.1000,0.0000,0.2953,0.5488,0.4985,0.6025,3.2400,9.0000,-1.3100,0.0000,0.0000,0.1000,-0.5050,-0.4900,-0.5135,0.4910,-9.8300,-0.1400,-0.0900,0.0000,0.0000,0.0000,-0.4296,-0.5718,0.4433,0.5401,-2.0400,9.5900,-0.3900,0.0000,0.0000,0.0000,0.5199,0.6454,0.1997,0.5226,4.6000,8.6700,0.8100,0.0000,0.0000,0.0000
525763,0,0,1,-22.1704,-15.2930,-10.1514,-3.2739,-0.0073,-0.0238,-23.7085,-17.7759,0.0192,9.7492,-0.0622,1.5259,-1.1292,-0.5493,0.0192,9.7492,-0.0622,1.5259,-1.1292,-0.5493,-8.7960,1.3014,3.9635,-0.0602,-0.1226,0.0570,0.4925,-0.3861,0.3759,0.6834,0.5600,0.4117,0.5873,-0.4145,-9.7200,-0.2700,-0.2900,0.0000,0.0000,0.0000,0.4170,0.6149,0.4623,0.4838,2.0900,9.4800,-2.0700,0.0000,0.1000,0.0000,0.2952,0.5488,0.4984,0.6026,3.1400,9.0300,-1.3600,0.0000,0.0000,0.1000,-0.5050,-0.4900,-0.5134,0.4911,-9.8500,-0.1500,-0.1100,0.0000,0.0000,0.0000,-0.4296,-0.5718,0.4434,0.5401,-2.0700,9.5800,-0.4100,0.0000,0.0000,0.0000,0.5199,0.6454,0.1997,0.5226,4.6000,8.6700,0.8100,0.0000,0.0000,0.0000
525764,0,0,1,-22.1704,-15.2930,-10.1514,-3.2739,0.0403,0.0238,-23.7085,-17.7759,-0.0263,9.7252,-0.0862,1.4954,-1.1597,-0.5188,-0.0263,9.7252,-0.0862,1.4954,-1.1597,-0.5188,-8.7960,1.3014,3.9635,-0.0602,-0.1226,0.0570,0.4925,-0.3861,0.3759,0.6834,0.5600,0.4117,0.5873,-0.4145,-9.7000,-0.3000,-0.3100,0.0000,0.0000,0.0000,0.4170,0.6148,0.4625,0.4838,2.1600,9.4600,-2.0400,0.0000,0.1000,0.0000,0.2951,0.5487,0.4983,0.6028,3.2300,9.1400,-1.3200,0.0000,0.1000,0.1000,-0.5050,-0.4899,-0.5134,0.4911,-9.8800,-0.1500,-0.1100,0.0000,0.0000,0.0000,-0.4295,-0.5718,0.4434,0.5402,-2.1000,9.5600,-0.4200,0.0000,0.0000,0.0000,0.5199,0.6455,0.1996,0.5226,4.6300,8.6800,0.7800,0.0000,0.0000,0.0000
525765,0,0,1,-22.1704,-15.2930,-10.1514,-3.2739,0.0073,0.0220,-23.7085,-17.7759,0.0000,9.6917,-0.0670,1.4343,-1.1597,-0.6104,0.0000,9.6917,-0.0670,1.4343,-1.1597,-0.6104,-8.8325,1.3557,3.9783,-0.0658,-0.1204,0.0570,0.4925,-0.3859,0.3757,0.6836,0.5599,0.4117,0.5873,-0.4145,-9.7000,-0.2900,-0.3000,0.0000,0.0000,0.0000,0.4169,0.6147,0.4626,0.4839,2.2600,9.4600,-2.0400,0.0000,0.1000,0.0000,0.2951,0.5487,0.4983,0.6028,3.2300,9.1400,-1.3200,0.0000,0.1000,0.1000,-0.5050,-0.4899,-0.5133,0.4912,-9.8900,-0.1700,-0.1200,0.0000,0.0000,0.0000,-0.4295,-0.5718,0.4434,0.5402,-2.1000,9.5600,-0.4200,0.0000,0.0000,0.0000,0.5199,0.6455,0.1995,0.5225,4.6500,8.6400,0.8000,0.0000,0.0000,0.0000
525766,0,0,1,-22.1704,-15.2710,-10.1514,-3.2520,-0.0165,0.0073,-23.7085,-17.7759,0.0072,9.7492,-0.0431,1.4648,-1.0986,-0.7324,0.0072,9.7492,-0.0431,1.4648,-1.0986,-0.7324,-8.8325,1.3557,3.9783,-0.0658,-0.1204,0.0570,0.4925,-0.3859,0.3757,0.6836,0.5599,0.4117,0.5874,-0.4145,-9.6900,-0.2700,-0.3000,0.0000,0.0000,0.0000,0.4169,0.6147,0.4626,0.4839,2.2600,9.4600,-2.0400,0.0000,0.1000,0.0000,0.2949,0.5487,0.4982,0.6029,3.3000,9.3100,-1.1800,0.0000,0.1000,0.1000,-0.5050,-0.4899,-0.5133,0.4913,-9.9500,-0.1600,-0.1200,0.0000,0.0000,0.0000,-0.4295,-0.5717,0.4434,0.5402,-2.1200,9.5400,-0.4300,0.0000,0.0000,0.0000,0.5199,0.6456,0.1995,0.5224,4.6500,8.6200,0.8000,0.0000,0.0000,0.0000
525767,0,0,1,-22.1704,-15.2930,-10.1294,-3.2520,0.0128,-0.0110,-23.7085,-17.7759,0.0407,9.6869,-0.0790,1.3123,-1.3428,-0.7324,0.0407,9.6869,-0.0790,1.3123,-1.3428,-0.7324,-8.8960,1.4224,3.9281,-0.0569,-0.1046,0.0580,0.4924,-0.3858,0.3755,0.6839,0.5599,0.4118,0.5874,-0.4145,-9.7100,-0.2800,-0.2900,0.0000,0.0000,0.0000,0.4168,0.6146,0.4628,0.4840,2.3700,9.4300,-1.9800,0.0000,0.1000,0.0000,0.2948,0.5486,0.4982,0.6031,3.3300,9.4500,-1.0400,0.0000,0.1000,0.1000,-0.5050,-0.4899,-0.5133,0.4913,-9.9500,-0.1600,-0.1200,0.0000,0.0000,0.0000,-0.4295,-0.5717,0.4435,0.5402,-2.1300,9.5500,-0.4600,0.0000,0.0000,0.0000,0.5199,0.6456,0.1994,0.5224,4.6600,8.5900,0.7700,0.0000,0.0000,0.0000
525768,0,0,1,-22.1704,-15.2930,-10.1294,-3.2520,0.0128,-0.0201,-23.7085,-17.7759,0.0622,9.7875,-0.0551,1.4648,-0.9766,-0.4883,0.0622,9.7875,-0.0551,1.4648,-0.9766,-0.4883,-8.8960,1.4224,3.9281,-0.0569,-0.1046,0.0580,0.4924,-0.3858,0.3755,0.6839,0.5599,0.4118,0.5874,-0.4145,-9.7100,-0.2800,-0.2900,0.0000,0.0000,0.0000,0.4167,0.6144,0.4629,0.4840,2.4900,9.4500,-1.9000,0.0000,0.1000,0.0000,0.2947,0.5486,0.4981,0.6033,3.3100,9.5100,-0.9900,0.0000,0.1000,0.1000,-0.5049,-0.4899,-0.5132,0.4913,-9.9300,-0.1700,-0.1300,0.0000,0.0000,0.0000,-0.4295,-0.5716,0.4435,0.5403,-2.1600,9.5400,-0.4600,0.0000,0.0000,0.0000,0.5199,0.6456,0.1994,0.5224,4.6600,8.5900,0.7700,0.0000,0.0000,0.0000
525769,0,0,1,-22.1704,-15.2930,-10.1294,-3.2520,0.0037,-0.0110,-23.7085,-17.7759,0.0000,9.7109,-0.0048,1.1902,-1.2207,-0.5493,0.0000,9.7109,-0.0048,1.1902,-1.2207,-0.5493,-8.8960,1.4224,3.9281,-0.0569,-0.1046,0.0580,0.4924,-0.3858,0.3755,0.6839,0.5599,0.4117,0.5874,-0.4145,-9.6900,-0.2800,-0.3000,0.0000,0.0000,0.0000,0.4166,0.6143,0.4631,0.4841,2.5500,9.4600,-1.8300,0.0000,0.1000,0.0000,0.2945,0.5485,0.4981,0.6034,3.3300,9.4300,-1.0100,0.0000,0.1000,0.0000,-0.5049,-0.4899,-0.5132,0.4914,-9.9700,-0.1700,-0.1100,0.0000,0.0000,0.0000,-0.4295,-0.5716,0.4435,0.5403,-2.1700,9.5300,-0.4900,0.0000,0.0000,0.0000,0.5200,0.6457,0.1993,0.5223,4.6700,8.5600,0.7700,0.0000,0.0000,0.0000
525770,0,0,1,-22.1704,-15.2930,-10.1294,-3.2520,0.0055,-0.0146,-23.7085,-17.7759,0.0287,9.6678,-0.1221,1.0986,-1.0986,-0.7935,0.0287,9.6678,-0.1221,1.0986,-1.0986,-0.7935,-8.9369,1.4576,3.8768,-0.0632,-0.0717,0.0586,0.4923,-0.3857,0.3754,0.6841,0.5598,0.4117,0.5874,-0.4145,-9.7300,-0.2900,-0.2900,0.0000,0.0000,0.0000,0.4165,0.6142,0.4632,0.4842,2.6600,9.4900,-1.7300,0.0000,0.1000,0.0000,0.2945,0.5485,0.4981,0.6034,3.3300,9.4300,-1.0100,0.0000,0.1000,0.0000,-0.5049,-0.4899,-0.5132,0.4915,-9.9300,-0.1700,-0.1100,0.0000,0.0000,0.0000,-0.4295,-0.5716,0.4435,0.5403,-2.1700,9.5300,-0.4900,0.0000,0.0000,0.0000,0.5200,0.6457,0.1993,0.5223,4.6900,8.5400,0.7700,0.0000,0.0000,0.0000
525771,0,0,1,-22.1704,-15.2930,-10.1294,-3.2520,0.0000,0.0092,-23.7085,-17.7759,0.0455,9.7492,0.0048,1.3733,-0.8850,-0.6409,0.0455,9.7492,0.0048,1.3733,-0.8850,-0.6409,-8.9369,1.4576,3.8768,-0.0632,-0.0717,0.0586,0.4923,-0.3857,0.3754,0.6841,0.5598,0.4118,0.5874,-0.4145,-9.7300,-0.3000,-0.2600,0.0000,0.0000,0.0000,0.4164,0.6141,0.4633,0.4843,2.7000,9.4800,-1.6800,0.0000,0.1000,0.0000,0.2943,0.5485,0.4981,0.6035,3.3000,9.3300,-1.0100,0.0000,0.1000,0.0000,-0.5049,-0.4899,-0.5131,0.4915,-9.9300,-0.1800,-0.0900,0.0000,0.0000,0.0000,-0.4295,-0.5716,0.4435,0.5403,-2.1700,9.5300,-0.4900,0.0000,0.0000,0.0000,0.5200,0.6458,0.1992,0.5222,4.7100,8.5300,0.7600,0.0000,0.0000,0.0000
525772,0,0,1,-22.1704,-15.2710,-10.1294,-3.2300,-0.0055,-0.0037,-23.7085,-17.7759,0.0694,9.8138,0.0383,1.3428,-0.8850,-0.5188,0.0694,9.8138,0.0383,1.3428,-0.8850,-0.5188,-8.9565,1.4707,3.8120,-0.0698,-0.0344,0.0622,0.4922,-0.3856,0.3753,0.6843,0.5598,0.4118,0.5874,-0.4145,-9.7300,-0.3000,-0.2600,0.0000,0.0000,0.0000,0.4164,0.6141,0.4633,0.4843,2.7000,9.4800,-1.6800,0.0000,0.1000,0.0000,0.2942,0.5484,0.4981,0.6037,3.3700,9.1900,-1.0800,0.0000,0.1000,0.0000,-0.5048,-0.4899,-0.5131,0.4916,-9.8900,-0.1900,-0.0900,0.0000,0.0000,0.0000,-0.4294,-0.5715,0.4436,0.5404,-2.2000,9.5200,-0.5000,0.0000,0.0000,0.0000,0.5200,0.6458,0.1991,0.5222,4.6800,8.5200,0.7600,0.0000,0.0000,0.0000
525773,0,0,1,-22.1704,-15.2710,-10.1294,-3.2300,-0.0146,0.0220,-23.7085,-17.7759,0.1365,9.7923,-0.0335,0.8545,-1.2512,-0.8545,0.1365,9.7923,-0.0335,0.8545,-1.2512,-0.8545,-8.9565,1.4707,3.8120,-0.0698,-0.0344,0.0622,0.4922,-0.3856,0.3753,0.6843,0.5598,0.4118,0.5874,-0.4145,-9.6800,-0.3000,-0.2500,0.0000,0.0000,0.0000,0.4163,0.6140,0.4635,0.4844,2.7300,9.4300,-1.6700,0.0000,0.1000,0.0000,0.2940,0.5483,0.4982,0.6038,3.3900,9.1500,-1.0600,0.0000,0.1000,0.0000,-0.5048,-0.4899,-0.5131,0.4916,-9.8900,-0.1900,-0.0900,0.0000,0.0000,0.0000,-0.4294,-0.5715,0.4436,0.5404,-2.2000,9.5000,-0.5100,0.0000,0.0000,0.0000,0.5200,0.6458,0.1991,0.5222,4.6800,8.5200,0.7600,0.0000,0.0000,0.0000
525774,0,0,1,-22.1704,-15.2710,-10.1294,-3.2300,-0.0183,-0.0037,-23.7085,-17.7759,0.0982,9.7971,-0.0192,1.0376,-1.1292,-0.6104,0.0982,9.7971,-0.0192,1.0376,-1.1292,-0.6104,-8.9565,1.4707,3.8120,-0.0698,-0.0344,0.0622,0.4922,-0.3856,0.3753,0.6843,0.5597,0.4118,0.5875,-0.4145,-9.7100,-0.3000,-0.2500,0.0000,0.0000,0.0000,0.4162,0.6140,0.4636,0.4844,2.6900,9.4000,-1.7000,0.0000,0.1000,0.0000,0.2938,0.5482,0.4982,0.6040,3.4700,9.1200,-1.0700,0.0000,0.1000,0.0000,-0.5048,-0.4899,-0.5131,0.4916,-9.8800,-0.1900,-0.0900,0.0000,0.0000,0.0000,-0.4294,-0.5714,0.4437,0.5404,-2.2000,9.5000,-0.5000,0.0000,0.0000,0.0000,0.5200,0.6459,0.1991,0.5221,4.6600,8.5200,0.7700,0.0000,0.0000,0.0000
525775,0,0,1,-22.1924,-15.2930,-10.1294,-3.2300,0.0165,-0.0256,-23.7085,-17.7759,0.1101,9.7875,-0.0431,1.0376,-1.1597,-0.6104,0.1101,9.7875,-0.0431,1.0376,-1.1597,-0.6104,-8.8290,1.5137,3.9774,-0.0567,-0.0056,0.0629,0.4920,-0.3856,0.3752,0.6844,0.5597,0.4118,0.5875,-0.4145,-9.7400,-0.3000,-0.2400,0.0000,0.0000,0.0000,0.4162,0.6140,0.4637,0.4844,2.6500,9.3500,-1.7300,0.0000,0.0000,0.0000,0.2937,0.5481,0.4982,0.6041,3.5700,9.1100,-1.0100,0.0000,0.1000,0.0000,-0.5048,-0.4899,-0.5131,0.4917,-9.8400,-0.1800,-0.0800,0.0000,0.0000,0.0000,-0.4294,-0.5714,0.4437,0.5405,-2.2500,9.5200,-0.5100,0.0000,0.0000,0.0000,0.5200,0.6459,0.1990,0.5221,4.6500,8.5300,0.8100,0.0000,0.0000,0.0000
525776,0,0,1,-22.1704,-15.2930,-10.1074,-3.2300,-0.0128,-0.0055,-23.7085,-17.7759,0.1030,9.8665,-0.0239,0.9766,-1.0071,-0.8545,0.1030,9.8665,-0.0239,0.9766,-1.0071,-0.8545,-8.8290,1.5137,3.9774,-0.0567,-0.0056,0.0629,0.4920,-0.3856,0.3752,0.6844,0.5597,0.4118,0.5875,-0.4145,-9.7200,-0.3400,-0.2300,0.0000,0.0000,0.0000,0.4162,0.6140,0.4637,0.4844,2.6500,9.3500,-1.7300,0.0000,0.0000,0.0000,0.2937,0.5481,0.4982,0.6041,3.5700,9.1100,-1.0100,0.0000,0.1000,0.0000,-0.5047,-0.4900,-0.5130,0.4917,-9.8000,-0.1800,-0.0300,0.0000,0.0000,0.0000,-0.4294,-0.5714,0.4437,0.5405,-2.2500,9.5200,-0.5100,0.0000,0.0000,0.0000,0.5200,0.6460,0.1989,0.5220,4.6300,8.5500,0.8100,0.0000,0.0000,0.0000
525777,0,0,1,-22.1704,-15.2930,-10.1074,-3.2300,-0.0018,0.0201,-23.7085,-17.7759,0.1125,9.8809,0.0120,0.8240,-1.0681,-0.6104,0.1125,9.8809,0.0120,0.8240,-1.0681,-0.6104,-8.6947,1.4908,4.0407,-0.0252,0.0020,0.0558,0.4919,-0.3856,0.3752,0.6845,0.5597,0.4118,0.5875,-0.4145,-9.7200,-0.3400,-0.2300,0.0000,0.0000,0.0000,0.4161,0.6139,0.4638,0.4844,2.6000,9.3200,-1.7800,0.0000,0.0000,0.0000,0.2935,0.5480,0.4983,0.6043,3.6900,9.0800,-0.9600,0.0000,0.1000,0.0000,-0.5047,-0.4900,-0.5130,0.4917,-9.8000,-0.1800,-0.0300,0.0000,0.0000,0.0000,-0.4293,-0.5714,0.4437,0.5405,-2.2500,9.5000,-0.5000,0.0000,0.0000,0.0000,0.5200,0.6461,0.1989,0.5220,4.5900,8.5500,0.8000,0.0000,0.0000,0.0000
525778,0,0,1,-22.1704,-15.2930,-10.1074,-3.2300,-0.0165,-0.0092,-23.7085,-17.7759,0.1149,9.9311,0.0192,0.4883,-1.2817,-0.5798,0.1149,9.9311,0.0192,0.4883,-1.2817,-0.5798,-8.6947,1.4908,4.0407,-0.0252,0.0020,0.0558,0.4919,-0.3856,0.3752,0.6845,0.5597,0.4118,0.5875,-0.4145,-9.7300,-0.3400,-0.2700,0.0000,0.0000,0.0000,0.4160,0.6139,0.4639,0.4844,2.5600,9.3100,-1.8200,0.0000,0.0000,0.0000,0.2933,0.5479,0.4983,0.6044,3.8200,9.0700,-0.9000,0.0000,0.1000,0.0000,-0.5047,-0.4900,-0.5130,0.4917,-9.7800,-0.1900,-0.0100,0.0000,0.0000,0.0000,-0.4293,-0.5713,0.4438,0.5405,-2.2900,9.4900,-0.4900,0.0000,0.0000,0.0000,0.5200,0.6461,0.1989,0.5220,4.5900,8.5500,0.8000,0.0000,0.0000,0.0000
525779,0,0,1,-22.1704,-15.2930,-10.1074,-3.2300,0.0256,-0.0220,-23.7085,-17.7759,0.1269,9.9359,0.0192,0.7019,-1.1292,-0.6409,0.1269,9.9359,0.0192,0.7019,-1.1292,-0.6409,-8.6066,1.4167,4.0077,-0.0183,-0.0023,0.0573,0.4918,-0.3856,0.3752,0.6846,0.5596,0.4118,0.5875,-0.4145,-9.7300,-0.3600,-0.2700,0.0000,0.0000,0.0000,0.4160,0.6139,0.4639,0.4844,2.4700,9.2600,-1.8400,0.0000,0.0000,0.0000,0.2932,0.5478,0.4983,0.6045,3.9300,9.0300,-0.8800,0.0000,0.1000,0.0000,-0.5046,-0.4900,-0.5130,0.4918,-9.7500,-0.2100,0.0000,0.0000,0.0000,0.0000,-0.4293,-0.5713,0.4438,0.5405,-2.2800,9.4900,-0.5100,0.0000,0.0000,0.0000,0.5200,0.6461,0.1988,0.5219,4.5600,8.5900,0.8000,0.0000,0.0000,0.0000
525780,0,0,1,-22.1704,-15.2710,-10.1074,-3.2080,0.0000,-0.0128,-23.7085,-17.7759,0.0742,9.8306,-0.0263,0.8545,-1.4954,-0.5798,0.0742,9.8306,-0.0263,0.8545,-1.4954,-0.5798,-8.6066,1.4167,4.0077,-0.0183,-0.0023,0.0573,0.4918,-0.3856,0.3752,0.6846,0.5596,0.4118,0.5875,-0.4145,-9.8000,-0.3500,-0.2600,0.0000,0.0000,0.0000,0.4159,0.6139,0.4640,0.4844,2.4100,9.2700,-1.8300,0.0000,0.0000,0.0000,0.2930,0.5477,0.4984,0.6047,4.0100,9.0200,-0.8200,0.0000,0.1000,0.0000,-0.5046,-0.4900,-0.5130,0.4918,-9.7400,-0.1800,0.0300,0.0000,0.0000,0.0000,-0.4293,-0.5713,0.4438,0.5405,-2.3200,9.4900,-0.5000,0.0000,0.0000,0.0000,0.5200,0.6462,0.1988,0.5219,4.5700,8.5900,0.8200,0.0000,0.0000,0.0000
525781,0,0,1,-22.1704,-15.2710,-10.1074,-3.2080,-0.0018,-0.0256,-23.7085,-17.7759,0.1077,9.9335,0.0215,0.8545,-1.2817,-0.5798,0.1077,9.9335,0.0215,0.8545,-1.2817,-0.5798,-8.6066,1.4167,4.0077,-0.0183,-0.0023,0.0573,0.4918,-0.3856,0.3752,0.6846,0.5596,0.4118,0.5875,-0.4146,-9.7800,-0.3600,-0.2500,0.0000,0.0000,0.0000,0.4159,0.6139,0.4640,0.4844,2.4100,9.2700,-1.8300,0.0000,0.0000,0.0000,0.2930,0.5477,0.4984,0.6047,4.0100,9.0200,-0.8200,0.0000,0.1000,0.0000,-0.5046,-0.4900,-0.5130,0.4919,-9.6900,-0.1800,0.0500,0.0000,0.0000,0.0000,-0.4293,-0.5713,0.4438,0.5405,-2.3200,9.4900,-0.5000,0.0000,0.0000,0.0000,0.5200,0.6463,0.1987,0.5218,4.5200,8.5900,0.8500,0.0000,0.0000,0.0000
525782,0,0,1,-22.1704,-15.2710,-10.1074,-3.2080,0.0128,-0.0110,-23.7085,-17.7759,0.1556,9.9455,0.0599,0.7019,-1.0681,-0.3357,0.1556,9.9455,0.0599,0.7019,-1.0681,-0.3357,-8.5379,1.3922,3.9879,-0.0241,-0.0292,0.0645,0.4917,-0.3855,0.3752,0.6847,0.5596,0.4118,0.5875,-0.4146,-9.7800,-0.3600,-0.2500,0.0000,0.0000,0.0000,0.4159,0.6139,0.4640,0.4844,2.3700,9.2700,-1.7800,0.0000,0.0000,0.0000,0.2929,0.5476,0.4984,0.6048,4.0600,8.9700,-0.8100,0.0000,0.1000,0.0000,-0.5046,-0.4900,-0.5130,0.4919,-9.6900,-0.1800,0.0500,0.0000,0.0000,0.0000,-0.4292,-0.5713,0.4439,0.5405,-2.3500,9.4800,-0.5100,0.0000,0.0000,0.0000,0.5200,0.6463,0.1987,0.5218,4.5200,8.5900,0.8500,0.0000,0.0000,0.0000
525783,0,0,1,-22.1704,-15.2710,-10.1074,-3.2080,-0.0073,-0.0256,-23.7085,-17.7759,0.1197,9.9790,-0.0527,0.4883,-1.4648,-0.5188,0.1197,9.9790,-0.0527,0.4883,-1.4648,-0.5188,-8.5379,1.3922,3.9879,-0.0241,-0.0292,0.0645,0.4917,-0.3855,0.3752,0.6847,0.5595,0.4119,0.5876,-0.4146,-9.7800,-0.3700,-0.2600,0.0000,0.0000,0.0000,0.4159,0.6139,0.4640,0.4844,2.2900,9.2800,-1.7500,0.0000,0.0000,0.0000,0.2928,0.5475,0.4984,0.6049,4.1200,8.9600,-0.8000,0.0000,0.1000,0.0000,-0.5045,-0.4900,-0.5130,0.4919,-9.7300,-0.1600,0.0500,0.0000,0.0000,0.0000,-0.4292,-0.5712,0.4439,0.5406,-2.3800,9.4800,-0.5100,0.0000,0.0000,0.0000,0.5200,0.6463,0.1986,0.5217,4.5100,8.5800,0.8600,0.0000,0.0000,0.0000
525784,0,0,1,-22.1924,-15.2930,-10.1074,-3.2080,-0.0092,-0.0201,-23.7085,-17.7759,0.1460,9.9862,0.0096,0.5798,-1.3123,-0.4272,0.1460,9.9862,0.0096,0.5798,-1.3123,-0.4272,-8.5065,1.3881,4.0262,-0.0368,-0.0648,0.0733,0.4916,-0.3854,0.3752,0.6849,0.5595,0.4119,0.5876,-0.4146,-9.7800,-0.3900,-0.3100,0.0000,0.0000,0.0000,0.4159,0.6139,0.4640,0.4843,2.2700,9.3100,-1.7200,0.0000,0.0000,0.0000,0.2927,0.5475,0.4984,0.6050,4.1400,8.9400,-0.7700,0.0000,0.0000,0.0000,-0.5045,-0.4900,-0.5130,0.4919,-9.7400,-0.1800,0.0700,0.0000,0.0000,0.0000,-0.4292,-0.5712,0.4440,0.5406,-2.4000,9.4800,-0.5400,0.0000,0.0000,0.0000,0.5200,0.6464,0.1986,0.5216,4.5300,8.6100,0.8500,0.0000,-0.1000,0.0000
525785,0,0,1,-22.1924,-15.2930,-10.1074,-3.2080,0.0146,0.0165,-23.7085,-17.7759,0.1269,9.9192,0.0048,0.2441,-1.5564,-0.3357,0.1269,9.9192,0.0048,0.2441,-1.5564,-0.3357,-8.5065,1.3881,4.0262,-0.0368,-0.0648,0.0733,0.4916,-0.3854,0.3752,0.6849,0.5595,0.4119,0.5876,-0.4146,-9.8000,-0.3800,-0.3400,0.0000,0.0000,0.0000,0.4160,0.6139,0.4640,0.4843,2.2100,9.3300,-1.6900,0.0000,0.0000,0.0000,0.2926,0.5475,0.4984,0.6050,4.1400,8.9000,-0.7700,0.0000,0.0000,0.0000,-0.5045,-0.4900,-0.5130,0.4920,-9.7300,-0.2000,0.0700,0.0000,0.0000,0.0000,-0.4292,-0.5712,0.4440,0.5406,-2.4100,9.4900,-0.5200,0.0000,0.0000,0.0000,0.5200,0.6465,0.1985,0.5215,4.5300,8.6000,0.8600,0.0000,-0.1000,0.0000
525786,0,0,1,-22.1704,-15.2930,-10.0854,-3.2080,-0.0110,0.0146,-23.7085,-17.7759,0.1149,9.9335,-0.0263,0.3967,-1.5869,-0.5798,0.1149,9.9335,-0.0263,0.3967,-1.5869,-0.5798,-8.5065,1.3881,4.0262,-0.0368,-0.0648,0.0733,0.4916,-0.3854,0.3752,0.6849,0.5595,0.4119,0.5876,-0.4146,-9.7900,-0.3900,-0.3800,0.0000,0.0000,0.0000,0.4160,0.6139,0.4640,0.4843,2.2100,9.3300,-1.6900,0.0000,0.0000,0.0000,0.2926,0.5475,0.4984,0.6050,4.1400,8.9000,-0.7700,0.0000,0.0000,0.0000,-0.5044,-0.4900,-0.5130,0.4920,-9.7400,-0.1700,0.0600,0.0000,0.0000,0.0000,-0.4292,-0.5712,0.4440,0.5406,-2.4100,9.4900,-0.5200,0.0000,0.0000,0.0000,0.5201,0.6466,0.1985,0.5214,4.5300,8.6000,0.8400,0.0000,-0.1000,0.0000
525787,0,0,1,-22.1704,-15.2930,-10.0854,-3.2080,0.0220,0.0146,-23.7085,-17.7759,0.0742,9.9359,0.0239,0.4883,-1.4648,-0.3052,0.0742,9.9359,0.0239,0.4883,-1.4648,-0.3052,-8.4948,1.3711,4.0314,-0.0512,-0.1179,0.0803,0.4915,-0.3852,0.3750,0.6851,0.5595,0.4119,0.5876,-0.4146,-9.7900,-0.3900,-0.3800,0.0000,0.0000,0.0000,0.4160,0.6139,0.4640,0.4842,2.1600,9.3400,-1.6800,0.0000,0.0000,0.0000,0.2925,0.5475,0.4983,0.6051,4.1400,8.8600,-0.7600,0.0000,0.0000,0.0000,-0.5044,-0.4900,-0.5130,0.4920,-9.7400,-0.1700,0.0600,0.0000,0.0000,0.0000,-0.4292,-0.5711,0.4441,0.5406,-2.4200,9.4900,-0.5300,0.0000,0.0000,0.0000,0.5201,0.6467,0.1984,0.5213,4.5700,8.5900,0.8500,0.0000,-0.1000,0.0000
525788,0,0,1,-22.1704,-15.2930,-10.0854,-3.2080,0.0165,-0.0055,-23.7085,-17.7759,0.0910,10.0149,-0.0263,0.3052,-1.8005,-0.0305,0.0910,10.0149,-0.0263,0.3052,-1.8005,-0.0305,-8.4948,1.3711,4.0314,-0.0512,-0.1179,0.0803,0.4915,-0.3852,0.3750,0.6851,0.5594,0.4119,0.5876,-0.4146,-9.7900,-0.4000,-0.3800,0.0000,0.0000,0.0000,0.4160,0.6140,0.4640,0.4842,2.0800,9.3500,-1.6800,0.0000,0.0000,0.0000,0.2925,0.5475,0.4983,0.6051,4.1500,8.8900,-0.7700,0.0000,0.0000,0.0000,-0.5044,-0.4900,-0.5130,0.4921,-9.7400,-0.1500,0.0700,0.0000,0.0000,0.0000,-0.4291,-0.5711,0.4441,0.5406,-2.4400,9.4900,-0.5400,0.0000,0.0000,0.0000,0.5201,0.6467,0.1984,0.5213,4.5700,8.5900,0.8500,0.0000,-0.1000,0.0000
525789,0,0,1,-22.1704,-15.2930,-10.0854,-3.2080,0.0000,0.0037,-23.7085,-17.7759,0.0622,9.8857,-0.0599,0.2136,-1.4954,-0.1526,0.0622,9.8857,-0.0599,0.2136,-1.4954,-0.1526,-8.6378,1.4034,4.0527,-0.0575,-0.1395,0.0871,0.4914,-0.3850,0.3748,0.6854,0.5594,0.4119,0.5876,-0.4146,-9.7900,-0.4100,-0.4200,0.0000,0.0000,0.0000,0.4160,0.6140,0.4641,0.4842,2.0500,9.3600,-1.6700,0.0000,0.0000,0.0000,0.2925,0.5475,0.4983,0.6052,4.1900,8.8800,-0.7700,0.0000,0.0000,0.0000,-0.5044,-0.4900,-0.5129,0.4921,-9.7400,-0.1600,0.1000,0.0000,0.0000,0.0000,-0.4291,-0.5711,0.4441,0.5406,-2.4700,9.5100,-0.5400,0.0000,0.0000,0.0000,0.5201,0.6468,0.1984,0.5212,4.5600,8.5900,0.8300,0.0000,-0.1000,0.0000
525790,0,0,1,-22.1704,-15.2930,-10.0854,-3.2080,-0.0018,0.0092,-23.7085,-17.7759,0.0622,9.9024,-0.0694,0.4578,-1.6174,-0.1221,0.0622,9.9024,-0.0694,0.4578,-1.6174,-0.1221,-8.6378,1.4034,4.0527,-0.0575,-0.1395,0.0871,0.4914,-0.3850,0.3748,0.6854,0.5594,0.4119,0.5876,-0.4146,-9.7700,-0.4000,-0.4600,0.0000,0.0000,0.0000,0.4161,0.6140,0.4641,0.4841,2.0200,9.3400,-1.6900,0.0000,0.0000,0.0000,0.2924,0.5476,0.4982,0.6052,4.1700,8.8400,-0.7600,0.0000,0.0000,0.0000,-0.5044,-0.4900,-0.5129,0.4922,-9.7800,-0.1500,0.1100,0.0000,0.0000,0.0000,-0.4291,-0.5711,0.4441,0.5406,-2.4700,9.5100,-0.5400,0.0000,0.0000,0.0000,0.5201,0.6469,0.1983,0.5211,4.5600,8.5900,0.8400,0.0000,-0.1000,0.0000
525791,0,0,1,-22.1704,-15.2710,-10.0854,-3.1860,-0.0037,0.0146,-23.7085,-17.7759,0.0622,9.9311,-0.0431,0.0610,-1.8616,-0.3052,0.0622,9.9311,-0.0431,0.0610,-1.8616,-0.3052,-8.6378,1.4034,4.0527,-0.0575,-0.1395,0.0871,0.4914,-0.3850,0.3748,0.6854,0.5594,0.4119,0.5876,-0.4146,-9.7900,-0.3900,-0.4600,0.0000,0.0000,0.0000,0.4161,0.6140,0.4641,0.4841,2.0200,9.3400,-1.6900,0.0000,0.0000,0.0000,0.2924,0.5476,0.4982,0.6052,4.1700,8.8400,-0.7600,0.0000,0.0000,0.0000,-0.5043,-0.4900,-0.5129,0.4922,-9.8000,-0.1600,0.1200,0.0000,0.0000,0.0000,-0.4291,-0.5711,0.4442,0.5406,-2.4800,9.5200,-0.5500,0.0000,0.0000,0.0000,0.5202,0.6469,0.1983,0.5210,4.5600,8.6200,0.8200,0.0000,-0.1000,0.0000
525792,0,0,1,-22.1704,-15.2710,-10.0854,-3.1860,-0.0037,-0.0201,-23.7085,-17.7759,0.0814,9.8426,-0.0311,0.1526,-1.6174,0.2136,0.0814,9.8426,-0.0311,0.1526,-1.6174,0.2136,-8.6840,1.4398,4.0757,-0.0470,-0.1524,0.0870,0.4913,-0.3847,0.3746,0.6857,0.5594,0.4119,0.5876,-0.4146,-9.7900,-0.3900,-0.4600,0.0000,0.0000,0.0000,0.4161,0.6140,0.4641,0.4841,1.9900,9.3500,-1.6900,0.0000,0.0000,0.0000,0.2925,0.5476,0.4981,0.6052,4.0500,8.8900,-0.7700,0.0000,0.0000,0.0000,-0.5043,-0.4900,-0.5129,0.4922,-9.8000,-0.1600,0.1200,0.0000,0.0000,0.0000,-0.4291,-0.5710,0.4442,0.5406,-2.5100,9.5200,-0.5500,0.0000,0.0000,0.0000,0.5202,0.6470,0.1982,0.5208,4.5400,8.5900,0.8200,0.0000,-0.1000,0.0000
525793,0,0,1,-22.1704,-15.2710,-10.0854,-3.1860,-0.0165,-0.0183,-23.7085,-17.7759,0.0407,9.8258,-0.0622,0.0610,-1.7090,-0.2136,0.0407,9.8258,-0.0622,0.0610,-1.7090,-0.2136,-8.6840,1.4398,4.0757,-0.0470,-0.1524,0.0870,0.4913,-0.3847,0.3746,0.6857,0.5594,0.4119,0.5876,-0.4146,-9.7800,-0.3600,-0.4600,0.0000,0.0000,0.0000,0.4162,0.6140,0.4641,0.4840,1.9500,9.3400,-1.7000,0.0000,0.0000,0.0000,0.2925,0.5477,0.4980,0.6052,3.9500,8.9600,-0.7600,0.0000,0.0000,0.0000,-0.5043,-0.4900,-0.5129,0.4922,-9.8000,-0.1600,0.1200,0.0000,0.0000,0.0000,-0.4291,-0.5710,0.4443,0.5406,-2.5100,9.5100,-0.5600,0.0000,0.0000,0.0000,0.5202,0.6470,0.1982,0.5208,4.5400,8.5900,0.8200,0.0000,-0.1000,0.0000
525794,0,0,1,-22.1704,-15.2710,-10.0854,-3.1860,0.0146,0.0238,-23.7085,-17.7759,0.0503,9.7588,-0.0694,0.0000,-1.7700,-0.0305,0.0503,9.7588,-0.0694,0.0000,-1.7700,-0.0305,-8.7554,1.4474,4.0490,-0.0223,-0.1683,0.0856,0.4913,-0.3844,0.3745,0.6860,0.5594,0.4119,0.5877,-0.4146,-9.7700,-0.3700,-0.4800,0.0000,0.0000,0.0000,0.4162,0.6140,0.4641,0.4840,1.9100,9.4000,-1.6900,0.0000,0.0000,0.0000,0.2925,0.5478,0.4979,0.6052,3.9100,9.0400,-0.7000,0.0000,0.0000,0.0000,-0.5043,-0.4900,-0.5129,0.4923,-9.8300,-0.1500,0.0600,0.0000,0.0000,0.0000,-0.4290,-0.5710,0.4443,0.5406,-2.5100,9.5000,-0.5500,0.0000,0.0000,0.0000,0.5202,0.6472,0.1982,0.5207,4.5700,8.5900,0.8000,0.0000,-0.1000,0.0000
525795,0,0,1,-22.1704,-15.2710,-10.0854,-3.1860,0.0037,0.0146,-23.7085,-17.7759,0.0479,9.7540,-0.0838,-0.0305,-1.7395,-0.1526,0.0479,9.7540,-0.0838,-0.0305,-1.7395,-0.1526,-8.7554,1.4474,4.0490,-0.0223,-0.1683,0.0856,0.4913,-0.3844,0.3745,0.6860,0.5594,0.4119,0.5877,-0.4146,-9.7400,-0.3400,-0.4500,0.0000,0.0000,0.0000,0.4163,0.6139,0.4641,0.4840,1.8700,9.3900,-1.7000,0.0000,0.0000,0.0000,0.2925,0.5479,0.4977,0.6053,3.8500,9.0500,-0.6800,0.0000,0.0000,0.0000,-0.5043,-0.4900,-0.5128,0.4924,-9.8500,-0.1700,0.0200,0.0000,0.0000,0.0000,-0.4290,-0.5710,0.4443,0.5406,-2.5100,9.5000,-0.5500,0.0000,0.0000,0.0000,0.5203,0.6473,0.1981,0.5205,4.6000,8.6200,0.7600,0.0000,-0.1000,0.0000
525796,0,0,1,-22.1704,-15.2710,-10.0854,-3.1860,-0.0146,-0.0037,-23.7085,-17.7759,0.0263,9.8761,-0.0886,0.0000,-1.6785,-0.1831,0.0263,9.8761,-0.0886,0.0000,-1.6785,-0.1831,-8.7554,1.4474,4.0490,-0.0223,-0.1683,0.0856,0.4913,-0.3844,0.3745,0.6860,0.5594,0.4119,0.5877,-0.4146,-9.7300,-0.3300,-0.4300,0.0000,0.0000,0.0000,0.4163,0.6139,0.4641,0.4840,1.8700,9.3900,-1.7000,0.0000,0.0000,0.0000,0.2925,0.5479,0.4977,0.6053,3.8500,9.0500,-0.6800,0.0000,0.0000,0.0000,-0.5043,-0.4900,-0.5128,0.4924,-9.8500,-0.1500,0.0200,0.0000,0.0000,0.0000,-0.4290,-0.5710,0.4443,0.5407,-2.5000,9.5100,-0.5300,0.0000,0.0000,0.0000,0.5203,0.6474,0.1981,0.5204,4.6200,8.6000,0.7000,0.0000,-0.1000,0.0000
525797,0,0,1,-22.1924,-15.2930,-10.0854,-3.1860,-0.0018,0.0128,-23.7085,-17.7759,0.0120,9.7444,-0.0982,-0.2136,-1.6479,-0.3052,0.0120,9.7444,-0.0982,-0.2136,-1.6479,-0.3052,-8.8146,1.4380,4.0245,-0.0288,-0.1854,0.0900,0.4913,-0.3840,0.3743,0.6863,0.5594,0.4119,0.5877,-0.4146,-9.7300,-0.3300,-0.4300,0.0000,0.0000,0.0000,0.4163,0.6139,0.4641,0.4839,1.8200,9.4300,-1.7100,0.0000,0.0000,0.0000,0.2926,0.5480,0.4976,0.6053,3.7700,9.0800,-0.7000,0.0000,0.0000,0.0000,-0.5043,-0.4900,-0.5128,0.4924,-9.8500,-0.1500,0.0200,0.0000,0.0000,0.0000,-0.4290,-0.5709,0.4444,0.5407,-2.4900,9.5000,-0.5200,0.0000,0.0000,0.0000,0.5204,0.6475,0.1980,0.5202,4.6500,8.5800,0.7000,0.0000,-0.1000,0.0000
525798,0,0,1,-22.1924,-15.2930,-10.0854,-3.1860,-0.0092,-0.0165,-23.7085,-17.7759,-0.0144,9.7683,-0.1149,0.0000,-1.4648,-0.0916,-0.0144,9.7683,-0.1149,0.0000,-1.4648,-0.0916,-8.8146,1.4380,4.0245,-0.0288,-0.1854,0.0900,0.4913,-0.3840,0.3743,0.6863,0.5594,0.4119,0.5877,-0.4146,-9.7300,-0.3300,-0.4500,0.0000,0.0000,0.0000,0.4164,0.6139,0.4641,0.4839,1.7500,9.4300,-1.7100,0.0000,0.0000,0.0000,0.2926,0.5481,0.4974,0.6053,3.7200,9.0400,-0.7400,0.0000,-0.1000,0.0000,-0.5042,-0.4899,-0.5128,0.4925,-9.8500,-0.1300,0.0000,0.0000,0.0000,0.0000,-0.4290,-0.5709,0.4444,0.5407,-2.5100,9.5000,-0.5200,0.0000,0.0000,0.0000,0.5204,0.6475,0.1980,0.5202,4.6500,8.5800,0.7000,0.0000,-0.1000,0.0000
525799,0,0,1,-22.1704,-15.2930,-10.0635,-3.1860,-0.0165,0.0128,-23.7085,-17.7759,-0.0024,9.7061,-0.1269,-0.2441,-1.5259,-0.3357,-0.0024,9.7061,-0.1269,-0.2441,-1.5259,-0.3357,-8.8146,1.4380,4.0245,-0.0288,-0.1854,0.0900,0.4913,-0.3840,0.3743,0.6863,0.5594,0.4119,0.5877,-0.4146,-9.7100,-0.3000,-0.4400,0.0000,0.0000,0.0000,0.4165,0.6139,0.4641,0.4838,1.6800,9.4500,-1.7200,0.0000,0.0000,0.0000,0.2927,0.5482,0.4973,0.6053,3.7000,9.0200,-0.7400,0.0000,-0.1000,0.1000,-0.5042,-0.4899,-0.5128,0.4926,-9.8700,-0.1200,-0.0300,0.0000,0.0000,0.0000,-0.4290,-0.5709,0.4444,0.5407,-2.4900,9.5000,-0.5300,0.0000,0.0000,0.0000,0.5204,0.6476,0.1979,0.5201,4.6900,8.5600,0.7200,0.0000,-0.1000,0.0000
525800,0,0,1,-22.1704,-15.2930,-10.0635,-3.1860,0.0165,0.0476,-23.7085,-17.7759,-0.0192,9.7157,-0.1149,-0.0916,-1.5564,-0.3357,-0.0192,9.7157,-0.1149,-0.0916,-1.5564,-0.3357,-8.8860,1.4302,4.0229,-0.0395,-0.1923,0.0970,0.4913,-0.3837,0.3741,0.6867,0.5593,0.4119,0.5877,-0.4146,-9.6900,-0.2600,-0.3800,0.0000,0.0000,0.0000,0.4165,0.6139,0.4641,0.4838,1.6000,9.4600,-1.7500,0.0000,0.0000,0.0000,0.2927,0.5484,0.4971,0.6052,3.6700,9.0200,-0.7400,0.0000,-0.1000,0.1000,-0.5042,-0.4899,-0.5127,0.4926,-9.8500,-0.1100,-0.0600,0.0000,0.0000,0.0000,-0.4290,-0.5709,0.4444,0.5407,-2.4900,9.5000,-0.5300,0.0000,0.0000,0.0000,0.5205,0.6476,0.1979,0.5199,4.7500,8.5300,0.7200,0.0000,-0.1000,0.0000
525801,0,0,1,-22.1704,-15.2930,-10.0635,-3.1860,-0.0128,-0.0201,-23.7085,-17.7759,-0.0599,9.6822,-0.0838,-0.0610,-1.5564,-0.4883,-0.0599,9.6822,-0.0838,-0.0610,-1.5564,-0.4883,-8.8860,1.4302,4.0229,-0.0395,-0.1923,0.0970,0.4913,-0.3837,0.3741,0.6867,0.5593,0.4119,0.5877,-0.4146,-9.6900,-0.2600,-0.3900,0.0000,0.0000,0.0000,0.4165,0.6139,0.4641,0.4838,1.6000,9.4600,-1.7500,0.0000,0.0000,0.0000,0.2927,0.5484,0.4971,0.6052,3.6700,9.0200,-0.7400,0.0000,-0.1000,0.1000,-0.5042,-0.4899,-0.5127,0.4927,-9.8600,-0.0900,-0.0900,0.0000,0.0000,0.0000,-0.4290,-0.5709,0.4444,0.5407,-2.4900,9.5000,-0.5300,0.0000,0.0000,0.0000,0.5205,0.6477,0.1978,0.5198,4.7300,8.5200,0.6000,0.0000,-0.1000,0.0000
525802,0,0,1,-22.1704,-15.2930,-10.0635,-3.1860,-0.0110,-0.0183,-23.7085,-17.7759,-0.0239,9.7636,-0.0862,-0.2441,-1.4648,-0.4578,-0.0239,9.7636,-0.0862,-0.2441,-1.4648,-0.4578,-8.9747,1.4023,3.9328,-0.0474,-0.1913,0.1011,0.4913,-0.3833,0.3738,0.6870,0.5593,0.4119,0.5877,-0.4146,-9.6900,-0.2600,-0.3900,0.0000,0.0000,0.0000,0.4166,0.6138,0.4642,0.4838,1.5700,9.4600,-1.7400,0.0000,0.0000,0.0000,0.2928,0.5485,0.4969,0.6052,3.5700,9.0500,-0.8100,0.0000,-0.1000,0.1000,-0.5042,-0.4899,-0.5127,0.4927,-9.8600,-0.0900,-0.0900,0.0000,0.0000,0.0000,-0.4289,-0.5708,0.4444,0.5408,-2.4700,9.4600,-0.5300,0.0000,0.0000,0.0000,0.5206,0.6478,0.1978,0.5197,4.7700,8.5400,0.6000,0.0000,-0.1000,0.0000
525803,0,0,1,-22.1704,-15.2930,-10.0635,-3.1860,0.0092,-0.0146,-23.7085,-17.7759,-0.0215,9.6343,-0.1269,-0.3662,-1.2817,-0.6714,-0.0215,9.6343,-0.1269,-0.3662,-1.2817,-0.6714,-8.9747,1.4023,3.9328,-0.0474,-0.1913,0.1011,0.4913,-0.3833,0.3738,0.6870,0.5593,0.4119,0.5877,-0.4146,-9.6800,-0.2500,-0.3800,0.0000,0.0000,0.0000,0.4166,0.6138,0.4642,0.4837,1.5500,9.4500,-1.7700,0.0000,0.0000,0.0000,0.2928,0.5487,0.4967,0.6052,3.5000,9.0700,-0.8100,0.0000,-0.1000,0.1000,-0.5042,-0.4899,-0.5126,0.4928,-9.9000,-0.0900,-0.1300,0.0000,0.0000,0.0000,-0.4289,-0.5708,0.4444,0.5408,-2.4800,9.4900,-0.5300,0.0000,0.0000,0.0000,0.5206,0.6478,0.1978,0.5197,4.7700,8.5400,0.6000,0.0000,-0.1000,0.0000
525804,0,0,1,-22.1704,-15.2930,-10.0635,-3.1860,0.0165,0.0055,-23.7085,-17.7759,0.0048,9.7396,-0.1221,-0.1526,-1.4343,-0.6409,0.0048,9.7396,-0.1221,-0.1526,-1.4343,-0.6409,-8.9747,1.4023,3.9328,-0.0474,-0.1913,0.1011,0.4913,-0.3833,0.3738,0.6870,0.5593,0.4119,0.5877,-0.4146,-9.6800,-0.2500,-0.3600,0.0000,0.0000,0.0000,0.4167,0.6137,0.4642,0.4837,1.5200,9.4400,-1.7700,0.0000,0.0000,0.0000,0.2929,0.5489,0.4964,0.6052,3.4800,9.1000,-0.7500,0.0000,-0.1000,0.1000,-0.5041,-0.4899,-0.5126,0.4929,-9.8800,-0.0800,-0.1500,0.0000,0.0000,0.0000,-0.4289,-0.5708,0.4444,0.5408,-2.4600,9.5100,-0.5100,0.0000,0.0000,0.0000,0.5206,0.6478,0.1977,0.5196,4.8400,8.5400,0.6700,0.0000,-0.1000,0.0000
525805,0,0,1,-22.1704,-15.2930,-10.0635,-3.1860,-0.0092,0.0000,-23.7085,-17.7759,-0.0383,9.6534,-0.0694,-0.4272,-1.3733,-0.6714,-0.0383,9.6534,-0.0694,-0.4272,-1.3733,-0.6714,-8.9712,1.3231,3.9572,-0.0572,-0.1670,0.1008,0.4912,-0.3830,0.3736,0.6874,0.5593,0.4119,0.5877,-0.4146,-9.6800,-0.2400,-0.3500,0.0000,0.0000,0.0000,0.4167,0.6137,0.4643,0.4837,1.4700,9.4700,-1.7700,0.0000,0.0000,0.0000,0.2930,0.5490,0.4962,0.6052,3.4400,9.1000,-0.7400,0.0000,-0.1000,0.1000,-0.5041,-0.4899,-0.5125,0.4930,-9.9300,-0.0600,-0.1800,0.0000,0.0000,0.0000,-0.4289,-0.5708,0.4444,0.5408,-2.4600,9.5100,-0.5100,0.0000,0.0000,0.0000,0.5206,0.6479,0.1977,0.5195,4.7400,8.5400,0.5800,0.0000,0.0000,0.0000
525806,0,0,1,-22.1704,-15.2930,-10.0635,-3.1860,-0.0073,-0.0146,-23.7085,-17.7759,-0.0287,9.6869,-0.0934,-0.1221,-1.0376,-0.6409,-0.0287,9.6869,-0.0934,-0.1221,-1.0376,-0.6409,-8.9712,1.3231,3.9572,-0.0572,-0.1670,0.1008,0.4912,-0.3830,0.3736,0.6874,0.5593,0.4119,0.5877,-0.4146,-9.7000,-0.2300,-0.3400,0.0000,0.0000,0.0000,0.4167,0.6137,0.4643,0.4837,1.4700,9.4700,-1.7700,0.0000,0.0000,0.0000,0.2930,0.5490,0.4962,0.6052,3.4400,9.1000,-0.7400,0.0000,-0.1000,0.1000,-0.5041,-0.4899,-0.5125,0.4931,-9.9200,-0.0600,-0.1900,0.0000,0.0000,0.0000,-0.4289,-0.5708,0.4444,0.5408,-2.4600,9.5100,-0.5100,0.0000,0.0000,0.0000,0.5207,0.6480,0.1977,0.5194,4.7000,8.6000,0.5200,0.0000,0.0000,0.0000
525807,0,0,1,-22.1704,-15.2930,-10.0635,-3.1860,-0.0073,0.0092,-23.7085,-17.7759,0.0000,9.7636,-0.0431,-0.3052,-1.2207,-0.6409,0.0000,9.7636,-0.0431,-0.3052,-1.2207,-0.6409,-8.9129,1.3107,4.0209,-0.0598,-0.1447,0.0996,0.4911,-0.3827,0.3734,0.6877,0.5593,0.4119,0.5877,-0.4146,-9.7000,-0.2300,-0.3400,0.0000,0.0000,0.0000,0.4168,0.6136,0.4643,0.4837,1.4300,9.5100,-1.7500,0.0000,0.0000,0.0000,0.2930,0.5492,0.4960,0.6052,3.4100,9.1300,-0.7500,0.0000,-0.1000,0.1000,-0.5040,-0.4899,-0.5124,0.4931,-9.9100,-0.0400,-0.1600,0.0000,0.0000,0.0000,-0.4289,-0.5708,0.4444,0.5409,-2.4500,9.5100,-0.4800,0.0000,0.0000,0.0000,0.5207,0.6480,0.1977,0.5194,4.7000,8.6000,0.5200,0.0000,0.0000,0.0000
525808,0,0,1,-22.1704,-15.2930,-10.0635,-3.1860,-0.0128,-0.0092,-23.7085,-17.7759,-0.0766,9.6343,-0.1173,-0.3357,-1.2207,-0.6104,-0.0766,9.6343,-0.1173,-0.3357,-1.2207,-0.6104,-8.9129,1.3107,4.0209,-0.0598,-0.1447,0.0996,0.4911,-0.3827,0.3734,0.6877,0.5593,0.4119,0.5877,-0.4147,-9.6800,-0.2500,-0.3200,0.0000,0.0000,0.0000,0.4168,0.6135,0.4644,0.4838,1.4300,9.5200,-1.7500,0.0000,0.0000,0.0000,0.2931,0.5494,0.4958,0.6052,3.3800,9.1400,-0.7200,-0.1000,-0.1000,0.1000,-0.5040,-0.4899,-0.5124,0.4931,-9.9100,-0.0400,-0.1600,0.0000,0.0000,0.0000,-0.4289,-0.5707,0.4444,0.5409,-2.4300,9.5200,-0.4400,0.0000,0.0000,0.0000,0.5207,0.6480,0.1977,0.5193,4.7300,8.6600,0.5700,0.0000,0.0000,0.0000
525809,0,0,1,-22.1704,-15.2930,-10.0635,-3.1860,0.0037,-0.0092,-23.7085,-17.7759,0.0096,9.6869,-0.0982,-0.4272,-0.9460,-0.9155,0.0096,9.6869,-0.0982,-0.4272,-0.9460,-0.9155,-8.9129,1.3107,4.0209,-0.0598,-0.1447,0.0996,0.4911,-0.3827,0.3734,0.6877,0.5593,0.4119,0.5877,-0.4147,-9.6800,-0.2500,-0.3100,0.0000,0.0000,0.0000,0.4168,0.6134,0.4645,0.4838,1.4800,9.5000,-1.7500,0.0000,0.0000,0.0000,0.2932,0.5496,0.4955,0.6052,3.3600,9.1300,-0.7200,-0.1000,-0.1000,0.1000,-0.5040,-0.4899,-0.5124,0.4932,-9.8800,-0.0300,-0.1600,0.0000,0.0000,0.0000,-0.4289,-0.5707,0.4444,0.5409,-2.4300,9.5200,-0.4400,0.0000,0.0000,0.0000,0.5207,0.6481,0.1976,0.5193,4.6600,8.6600,0.6400,0.0000,0.0000,0.0000
525810,0,0,1,-22.1704,-15.2930,-10.0635,-3.1860,-0.0073,-0.0073,-23.7085,-17.7759,0.0239,9.8114,-0.1173,-0.1526,-0.9460,-0.7324,0.0239,9.8114,-0.1173,-0.1526,-0.9460,-0.7324,-8.7536,1.3048,4.1003,-0.0610,-0.1314,0.0946,0.4910,-0.3825,0.3732,0.6880,0.5592,0.4119,0.5877,-0.4147,-9.6800,-0.2300,-0.3200,0.0000,0.0000,0.0000,0.4168,0.6133,0.4646,0.4838,1.4900,9.5500,-1.7300,0.0000,0.1000,0.0000,0.2932,0.5497,0.4953,0.6052,3.4100,9.1000,-0.7200,-0.1000,-0.1000,0.1000,-0.5040,-0.4899,-0.5123,0.4933,-9.8700,-0.0300,-0.1800,0.0000,0.0000,0.0000,-0.4289,-0.5707,0.4444,0.5409,-2.3800,9.5600,-0.4000,0.0000,0.0000,0.0000,0.5207,0.6481,0.1976,0.5192,4.6400,8.6400,0.6300,0.0000,0.0000,0.0000
525811,0,0,1,-22.1704,-15.2930,-10.0635,-3.1860,0.0055,-0.0183,-23.7085,-17.7759,-0.0335,9.7252,-0.0838,-0.5798,-1.0681,-1.0986,-0.0335,9.7252,-0.0838,-0.5798,-1.0681,-1.0986,-8.7536,1.3048,4.1003,-0.0610,-0.1314,0.0946,0.4910,-0.3825,0.3732,0.6880,0.5592,0.4119,0.5877,-0.4147,-9.6900,-0.2600,-0.3000,0.0000,0.0000,0.0000,0.4168,0.6133,0.4646,0.4838,1.4900,9.5500,-1.7300,0.0000,0.1000,0.0000,0.2932,0.5497,0.4953,0.6052,3.4100,9.1000,-0.7200,-0.1000,-0.1000,0.1000,-0.5039,-0.4899,-0.5123,0.4934,-9.8300,-0.0600,-0.1700,0.0000,0.0000,0.0000,-0.4289,-0.5707,0.4444,0.5409,-2.3800,9.5600,-0.4000,0.0000,0.0000,0.0000,0.5208,0.6482,0.1976,0.5191,4.7100,8.6300,0.5900,0.0000,0.0000,0.0000
525812,0,0,1,-22.1704,-15.2930,-10.0635,-3.1860,-0.0165,0.0146,-23.7085,-17.7759,0.0144,9.7636,-0.0622,-0.4883,-0.8850,-0.8545,0.0144,9.7636,-0.0622,-0.4883,-0.8850,-0.8545,-8.5938,1.2310,4.1752,-0.0528,-0.1506,0.0849,0.4909,-0.3822,0.3731,0.6883,0.5592,0.4119,0.5877,-0.4147,-9.6900,-0.2600,-0.3000,0.0000,0.0000,0.0000,0.4167,0.6132,0.4648,0.4839,1.5300,9.5300,-1.7600,0.0000,0.1000,0.0000,0.2933,0.5499,0.4950,0.6052,3.4000,9.0800,-0.7900,-0.1000,-0.1000,0.1000,-0.5039,-0.4899,-0.5123,0.4934,-9.8300,-0.0600,-0.1700,0.0000,0.0000,0.0000,-0.4289,-0.5707,0.4444,0.5410,-2.3200,9.5500,-0.3600,0.0000,0.0000,0.0000,0.5208,0.6482,0.1975,0.5190,4.7100,8.6000,0.5800,0.0000,0.0000,0.0000
525813,0,0,1,-22.1704,-15.2930,-10.0635,-3.1860,-0.0165,-0.0110,-23.7085,-17.7759,-0.0335,9.7875,-0.0096,-0.4272,-0.6409,-0.9460,-0.0335,9.7875,-0.0096,-0.4272,-0.6409,-0.9460,-8.5938,1.2310,4.1752,-0.0528,-0.1506,0.0849,0.4909,-0.3822,0.3731,0.6883,0.5592,0.4119,0.5877,-0.4147,-9.7000,-0.2800,-0.3200,0.0000,0.0000,0.0000,0.4167,0.6130,0.4649,0.4839,1.5600,9.5100,-1.8200,0.0000,0.1000,0.0000,0.2934,0.5501,0.4947,0.6052,3.3600,9.0400,-0.8500,-0.1000,-0.2000,0.1000,-0.5039,-0.4899,-0.5122,0.4935,-9.8100,-0.0800,-0.1800,0.0000,0.0000,0.0000,-0.4289,-0.5707,0.4444,0.5410,-2.2700,9.5200,-0.3300,0.0000,0.0000,0.0000,0.5208,0.6482,0.1975,0.5190,4.7100,8.6000,0.5800,0.0000,0.0000,0.0000
525814,0,0,1,-22.1704,-15.2930,-10.0635,-3.1860,-0.0055,-0.0201,-23.7085,-17.7759,0.0383,9.8234,-0.0670,-0.5493,-0.8545,-0.8545,0.0383,9.8234,-0.0670,-0.5493,-0.8545,-0.8545,-8.5938,1.2310,4.1752,-0.0528,-0.1506,0.0849,0.4909,-0.3822,0.3731,0.6883,0.5592,0.4119,0.5877,-0.4148,-9.7300,-0.2900,-0.3200,0.0000,0.0000,0.0000,0.4166,0.6129,0.4651,0.4840,1.6000,9.4600,-1.9300,0.0000,0.1000,0.0000,0.2935,0.5504,0.4945,0.6052,3.3900,9.0400,-0.8800,-0.1000,-0.2000,0.1000,-0.5038,-0.4899,-0.5122,0.4936,-9.8200,-0.1100,-0.1900,0.0000,0.0000,0.0000,-0.4289,-0.5707,0.4444,0.5410,-2.2500,9.5200,-0.3000,0.0000,0.0000,0.0000,0.5209,0.6482,0.1975,0.5189,4.7300,8.6000,0.5300,0.0000,0.0000,0.0000
525815,0,0,1,-22.1704,-15.2930,-10.0635,-3.1860,0.0092,-0.0165,-23.7085,-17.7759,0.0048,9.8090,-0.0479,-0.4883,-0.8240,-0.9766,0.0048,9.8090,-0.0479,-0.4883,-0.8240,-0.9766,-8.5279,1.2462,4.1654,-0.0549,-0.1716,0.0801,0.4909,-0.3819,0.3728,0.6886,0.5592,0.4119,0.5877,-0.4148,-9.7300,-0.3200,-0.3400,0.0000,0.0000,0.0000,0.4165,0.6128,0.4653,0.4841,1.6600,9.4200,-2.0000,0.0000,0.1000,0.0000,0.2936,0.5505,0.4942,0.6052,3.4100,9.0700,-0.8900,-0.1000,-0.2000,0.1000,-0.5038,-0.4899,-0.5121,0.4937,-9.8000,-0.1300,-0.2000,0.0000,0.0000,0.0000,-0.4289,-0.5707,0.4443,0.5411,-2.2000,9.5000,-0.2900,0.0000,0.0000,0.0000,0.5209,0.6483,0.1975,0.5189,4.7600,8.6200,0.5500,0.0000,0.0000,0.0000
525816,0,0,1,-22.1704,-15.2930,-10.0635,-3.1860,-0.0037,-0.0256,-23.7085,-17.7759,0.0144,9.7827,-0.0503,-0.5493,-0.7324,-0.7629,0.0144,9.7827,-0.0503,-0.5493,-0.7324,-0.7629,-8.5279,1.2462,4.1654,-0.0549,-0.1716,0.0801,0.4909,-0.3819,0.3728,0.6886,0.5592,0.4119,0.5877,-0.4148,-9.7400,-0.3000,-0.3400,0.0000,0.0000,0.0000,0.4165,0.6128,0.4653,0.4841,1.6600,9.4200,-2.0000,0.0000,0.1000,0.0000,0.2936,0.5505,0.4942,0.6052,3.4100,9.0700,-0.8900,-0.1000,-0.2000,0.1000,-0.5037,-0.4900,-0.5121,0.4937,-9.8100,-0.1300,-0.2200,0.1000,0.0000,0.0000,-0.4289,-0.5707,0.4443,0.5411,-2.2000,9.5000,-0.2900,0.0000,0.0000,0.0000,0.5209,0.6483,0.1975,0.5189,4.7300,8.6200,0.5600,0.0000,0.0000,0.0000
525817,0,0,1,-22.1704,-15.2930,-10.0635,-3.1860,0.0018,-0.0092,-23.7085,-17.7759,0.0575,9.8545,0.0263,-0.5188,-0.9460,-0.8850,0.0575,9.8545,0.0263,-0.5188,-0.9460,-0.8850,-8.5073,1.2395,4.1605,-0.0718,-0.1974,0.0755,0.4909,-0.3816,0.3725,0.6889,0.5592,0.4119,0.5877,-0.4148,-9.7400,-0.3000,-0.3400,0.0000,0.0000,0.0000,0.4165,0.6126,0.4655,0.4842,1.7300,9.4000,-2.0500,0.0000,0.2000,0.0000,0.2937,0.5508,0.4940,0.6051,3.4300,9.0900,-0.8900,-0.1000,-0.2000,0.1000,-0.5037,-0.4900,-0.5121,0.4937,-9.8100,-0.1300,-0.2200,0.1000,0.0000,0.0000,-0.4289,-0.5706,0.4443,0.5411,-2.1600,9.4900,-0.2400,0.0000,0.0000,0.0000,0.5209,0.6483,0.1975,0.5188,4.6800,8.6400,0.5900,0.0000,0.0000,0.0000
525818,0,0,1,-22.1704,-15.2930,-10.0635,-3.1860,0.0092,-0.0146,-23.7085,-17.7759,-0.0072,9.8282,-0.0694,-0.6409,-0.8240,-0.9766,-0.0072,9.8282,-0.0694,-0.6409,-0.8240,-0.9766,-8.5073,1.2395,4.1605,-0.0718,-0.1974,0.0755,0.4909,-0.3816,0.3725,0.6889,0.5592,0.4119,0.5877,-0.4148,-9.7400,-0.3300,-0.3400,0.0000,0.0000,0.0000,0.4164,0.6124,0.4657,0.4843,1.8000,9.3500,-2.0800,0.0000,0.2000,0.0000,0.2938,0.5510,0.4937,0.6051,3.4600,9.1100,-0.8900,0.0000,-0.2000,0.1000,-0.5037,-0.4900,-0.5120,0.4938,-9.8000,-0.1700,-0.2100,0.1000,0.0000,0.0000,-0.4289,-0.5706,0.4443,0.5411,-2.1400,9.4700,-0.2200,0.0000,0.0000,0.0000,0.5209,0.6483,0.1975,0.5188,4.6800,8.6400,0.5900,0.0000,0.0000,0.0000
525819,0,0,1,-22.1704,-15.2930,-10.0635,-3.1860,-0.0018,0.0000,-23.7085,-17.7759,0.0527,9.8785,-0.0335,-0.4578,-0.7324,-0.9766,0.0527,9.8785,-0.0335,-0.4578,-0.7324,-0.9766,-8.5073,1.2395,4.1605,-0.0718,-0.1974,0.0755,0.4909,-0.3816,0.3725,0.6889,0.5591,0.4119,0.5877,-0.4149,-9.7500,-0.3600,-0.3400,0.0000,0.0000,0.0000,0.4163,0.6122,0.4659,0.4844,1.9300,9.3400,-2.0700,0.0000,0.2000,0.0000,0.2939,0.5512,0.4935,0.6050,3.5000,9.0800,-0.8600,0.0000,-0.2000,0.1000,-0.5036,-0.4900,-0.5119,0.4939,-9.7900,-0.1700,-0.2100,0.1000,0.0000,0.0000,-0.4289,-0.5706,0.4443,0.5412,-2.1300,9.4700,-0.2100,0.0000,0.0000,0.0000,0.5209,0.6483,0.1975,0.5188,4.6800,8.6500,0.6200,0.0000,0.0000,0.0000
525820,0,0,1,-22.1704,-15.2930,-10.0635,-3.1860,-0.0092,-0.0110,-23.7085,-17.7759,0.0407,9.8904,0.0168,-0.6104,-0.9155,-0.9155,0.0407,9.8904,0.0168,-0.6104,-0.9155,-0.9155,-8.5011,1.3177,4.2171,-0.0783,-0.2198,0.0767,0.4909,-0.3813,0.3722,0.6893,0.5591,0.4119,0.5877,-0.4149,-9.7400,-0.3600,-0.3800,0.0000,0.0000,0.0000,0.4162,0.6120,0.4661,0.4846,2.0500,9.3400,-2.0000,0.0000,0.2000,0.0000,0.2940,0.5514,0.4933,0.6050,3.5400,9.0600,-0.8500,0.0000,-0.2000,0.1000,-0.5035,-0.4901,-0.5119,0.4940,-9.8000,-0.1800,-0.2000,0.1000,0.0000,0.0000,-0.4289,-0.5706,0.4443,0.5412,-2.1300,9.4700,-0.2100,0.0000,0.0000,0.0000,0.5209,0.6483,0.1975,0.5188,4.6500,8.6300,0.6100,0.0000,0.0000,0.0000
525821,0,0,1,-22.1704,-15.2930,-10.0635,-3.1860,0.0146,-0.0146,-23.7085,-17.7759,0.0215,9.9407,-0.0527,-0.8240,-0.9766,-0.7324,0.0215,9.9407,-0.0527,-0.8240,-0.9766,-0.7324,-8.5011,1.3177,4.2171,-0.0783,-0.2198,0.0767,0.4909,-0.3813,0.3722,0.6893,0.5591,0.4119,0.5877,-0.4149,-9.7400,-0.3700,-0.3800,0.0000,0.0000,0.0000,0.4162,0.6120,0.4661,0.4846,2.0500,9.3400,-2.0000,0.0000,0.2000,0.0000,0.2940,0.5514,0.4933,0.6050,3.5400,9.0600,-0.8500,0.0000,-0.2000,0.1000,-0.5035,-0.4901,-0.5118,0.4941,-9.8000,-0.2000,-0.2300,0.1000,0.0000,0.0000,-0.4289,-0.5705,0.4443,0.5412,-2.1300,9.4800,-0.2300,0.0000,0.0000,0.0000,0.5209,0.6483,0.1975,0.5188,4.6200,8.6000,0.6100,0.0000,0.0000,0.0000
525822,0,0,1,-22.1704,-15.2930,-10.0635,-3.1860,-0.0073,0.0128,-23.7085,-17.7759,0.0024,9.8138,-0.0096,-0.5798,-0.9460,-0.7019,0.0024,9.8138,-0.0096,-0.5798,-0.9460,-0.7019,-8.5437,1.3629,4.2326,-0.0829,-0.2461,0.0764,0.4909,-0.3809,0.3718,0.6897,0.5591,0.4119,0.5877,-0.4149,-9.7400,-0.3700,-0.3800,0.0000,0.0000,0.0000,0.4161,0.6118,0.4663,0.4847,2.1300,9.3700,-1.9300,0.0000,0.2000,0.0000,0.2942,0.5516,0.4930,0.6049,3.5500,9.0300,-0.8400,0.0000,-0.2000,0.1000,-0.5035,-0.4901,-0.5118,0.4941,-9.8000,-0.2000,-0.2300,0.1000,0.0000,0.0000,-0.4289,-0.5705,0.4443,0.5413,-2.1700,9.5000,-0.2300,0.0000,0.0000,0.0000,0.5209,0.6483,0.1975,0.5188,4.6200,8.5800,0.6100,0.0000,0.0000,0.0000
525823,0,0,1,-22.1704,-15.2930,-10.0635,-3.1860,0.0092,-0.0220,-23.7085,-17.7759,0.0287,9.8713,-0.0503,-0.7324,-0.8240,-0.5798,0.0287,9.8713,-0.0503,-0.7324,-0.8240,-0.5798,-8.5437,1.3629,4.2326,-0.0829,-0.2461,0.0764,0.4909,-0.3809,0.3718,0.6897,0.5591,0.4119,0.5877,-0.4149,-9.7400,-0.3800,-0.3900,0.0000,0.0000,0.0000,0.4160,0.6116,0.4665,0.4849,2.2500,9.3500,-1.8500,0.0000,0.2000,0.0000,0.2943,0.5518,0.4928,0.6048,3.5700,9.0100,-0.8600,0.0000,-0.2000,0.1000,-0.5034,-0.4902,-0.5117,0.4943,-9.8000,-0.2200,-0.2600,0.1000,0.0000,0.0000,-0.4289,-0.5705,0.4443,0.5413,-2.1600,9.4900,-0.2400,0.0000,0.0000,0.0000,0.5209,0.6483,0.1975,0.5188,4.6200,8.5800,0.6100,0.0000,0.0000,0.0000
525824,0,0,1,-22.1704,-15.2930,-10.0635,-3.1860,-0.0092,0.0092,-23.7085,-17.7759,0.0239,9.8402,-0.0192,-0.7324,-1.0376,-1.0681,0.0239,9.8402,-0.0192,-0.7324,-1.0376,-1.0681,-8.5437,1.3629,4.2326,-0.0829,-0.2461,0.0764,0.4909,-0.3809,0.3718,0.6897,0.5591,0.4119,0.5877,-0.4149,-9.7500,-0.3900,-0.3800,0.0000,0.0000,0.0000,0.4159,0.6114,0.4667,0.4850,2.3500,9.3200,-1.7900,0.0000,0.2000,0.0000,0.2944,0.5520,0.4926,0.6048,3.6000,9.0200,-0.8500,0.0000,-0.2000,0.1000,-0.5033,-0.4902,-0.5117,0.4944,-9.8200,-0.2300,-0.2600,0.1000,0.0000,0.0000,-0.4289,-0.5704,0.4443,0.5414,-2.2200,9.5000,-0.2800,0.0000,0.0000,0.0000,0.5209,0.6483,0.1975,0.5188,4.6100,8.5600,0.6200,0.0000,0.0000,0.0000
525825,0,0,1,-22.1924,-15.2930,-10.0854,-3.1860,-0.0165,0.0201,-23.7085,-17.7759,0.0790,10.0030,0.0000,-0.9460,-0.9766,-0.6104,0.0790,10.0030,0.0000,-0.9460,-0.9766,-0.6104,-8.5685,1.4013,4.2492,-0.0863,-0.2669,0.0791,0.4909,-0.3805,0.3714,0.6901,0.5592,0.4118,0.5877,-0.4150,-9.7800,-0.3800,-0.3900,0.0000,0.0000,0.0000,0.4158,0.6111,0.4669,0.4852,2.4300,9.3500,-1.7400,0.0000,0.2000,0.0000,0.2945,0.5522,0.4924,0.6047,3.6600,9.0300,-0.8500,0.0000,-0.2000,0.0000,-0.5032,-0.4902,-0.5116,0.4945,-9.8100,-0.2400,-0.2300,0.1000,0.0000,0.0000,-0.4289,-0.5704,0.4443,0.5414,-2.2200,9.5000,-0.2800,0.0000,0.0000,0.0000,0.5209,0.6483,0.1976,0.5188,4.5900,8.5700,0.6400,0.0000,0.0000,0.0000
525826,0,0,1,-22.1924,-15.2930,-10.0854,-3.1860,-0.0275,-0.0201,-23.7085,-17.7759,0.0790,9.8785,-0.0599,-1.0376,-1.0681,-0.6104,0.0790,9.8785,-0.0599,-1.0376,-1.0681,-0.6104,-8.5685,1.4013,4.2492,-0.0863,-0.2669,0.0791,0.4909,-0.3805,0.3714,0.6901,0.5592,0.4118,0.5877,-0.4150,-9.7800,-0.3800,-0.3900,0.0000,0.0000,0.0000,0.4156,0.6109,0.4671,0.4854,2.5200,9.3100,-1.6900,0.0000,0.2000,0.0000,0.2945,0.5522,0.4924,0.6047,3.6600,9.0300,-0.8500,0.0000,-0.2000,0.0000,-0.5032,-0.4903,-0.5115,0.4945,-9.7900,-0.2400,-0.1900,0.1000,0.0000,0.0000,-0.4288,-0.5704,0.4443,0.5414,-2.2400,9.4700,-0.3400,0.0000,0.0000,0.0000,0.5209,0.6483,0.1976,0.5188,4.5900,8.5800,0.6400,0.0000,0.0000,0.0000
525827,0,0,1,-22.1704,-15.2710,-10.0854,-3.1860,-0.0092,0.0238,-23.7085,-17.7759,-0.0096,9.7588,-0.0622,-0.6714,-1.0376,-0.7324,-0.0096,9.7588,-0.0622,-0.6714,-1.0376,-0.7324,-8.6148,1.4520,4.2863,-0.0901,-0.2742,0.0781,0.4909,-0.3801,0.3710,0.6906,0.5592,0.4118,0.5876,-0.4150,-9.7500,-0.3800,-0.4100,0.0000,0.0000,0.0000,0.4156,0.6109,0.4671,0.4854,2.5200,9.3100,-1.6900,0.0000,0.2000,0.0000,0.2946,0.5524,0.4923,0.6046,3.7300,9.0400,-0.9200,0.0000,-0.2000,0.0000,-0.5032,-0.4903,-0.5115,0.4945,-9.7900,-0.2400,-0.1900,0.1000,0.0000,0.0000,-0.4288,-0.5704,0.4443,0.5414,-2.2400,9.4600,-0.3600,0.0000,0.0000,0.0000,0.5209,0.6483,0.1976,0.5188,4.5900,8.5800,0.6400,0.0000,0.0000,0.0000
525828,0,0,1,-22.1704,-15.2710,-10.0854,-3.1860,0.0073,0.0311,-23.7085,-17.7759,0.1341,9.9383,0.0287,-0.8240,-1.2207,-0.6409,0.1341,9.9383,0.0287,-0.8240,-1.2207,-0.6409,-8.6148,1.4520,4.2863,-0.0901,-0.2742,0.0781,0.4909,-0.3801,0.3710,0.6906,0.5592,0.4118,0.5876,-0.4150,-9.7500,-0.3800,-0.4100,0.0000,0.0000,0.0000,0.4155,0.6107,0.4673,0.4856,2.6100,9.3200,-1.6300,0.0000,0.2000,0.0000,0.2947,0.5526,0.4921,0.6045,3.7900,9.0400,-0.9100,0.0000,-0.2000,0.0000,-0.5031,-0.4903,-0.5115,0.4946,-9.8300,-0.2400,-0.1500,0.0000,0.0000,0.0000,-0.4288,-0.5703,0.4443,0.5415,-2.2700,9.4700,-0.3900,0.0000,0.0000,0.0000,0.5209,0.6483,0.1976,0.5188,4.5500,8.5700,0.6800,0.0000,0.0000,0.0000
525829,0,0,1,-22.1704,-15.2710,-10.0854,-3.1860,-0.0183,0.0092,-23.7085,-17.7759,0.0096,9.8306,0.0311,-0.9460,-1.1902,-0.5493,0.0096,9.8306,0.0311,-0.9460,-1.1902,-0.5493,-8.6630,1.4658,4.3212,-0.0920,-0.2975,0.0791,0.4910,-0.3796,0.3706,0.6910,0.5592,0.4118,0.5876,-0.4150,-9.7800,-0.3600,-0.4000,0.0000,0.0000,0.0000,0.4154,0.6106,0.4675,0.4857,2.6500,9.3100,-1.6100,0.0000,0.2000,0.0000,0.2948,0.5528,0.4919,0.6044,3.8400,9.0200,-0.9400,0.0000,-0.2000,0.0000,-0.5031,-0.4903,-0.5114,0.4947,-9.8300,-0.2700,-0.1100,0.0000,0.0000,0.0000,-0.4288,-0.5703,0.4443,0.5415,-2.2800,9.4600,-0.4200,0.0000,0.0000,0.0000,0.5209,0.6483,0.1977,0.5188,4.5400,8.5500,0.6900,0.0000,0.0000,0.0000
525830,0,0,1,-22.1704,-15.2710,-10.0854,-3.1860,0.0018,0.0073,-23.7085,-17.7759,0.0838,9.8737,-0.0096,-0.7629,-1.0681,-0.3052,0.0838,9.8737,-0.0096,-0.7629,-1.0681,-0.3052,-8.6630,1.4658,4.3212,-0.0920,-0.2975,0.0791,0.4910,-0.3796,0.3706,0.6910,0.5592,0.4118,0.5876,-0.4150,-9.7700,-0.4300,-0.4300,0.0000,0.0000,0.0000,0.4153,0.6104,0.4677,0.4858,2.7200,9.2900,-1.6000,0.0000,0.2000,0.0000,0.2949,0.5530,0.4917,0.6043,3.9000,8.9900,-0.9400,0.0000,-0.2000,0.0000,-0.5030,-0.4903,-0.5114,0.4948,-9.8500,-0.2800,-0.0200,0.0000,0.0000,0.0000,-0.4288,-0.5703,0.4443,0.5415,-2.2800,9.4600,-0.4200,0.0000,0.0000,0.0000,0.5209,0.6483,0.1977,0.5188,4.4900,8.5400,0.6700,0.0000,0.0000,0.0000
525831,0,0,1,-22.1704,-15.2710,-10.0854,-3.1860,0.0000,0.0018,-23.7085,-17.7759,0.0862,9.8114,0.0239,-1.1292,-1.2817,-0.7019,0.0862,9.8114,0.0239,-1.1292,-1.2817,-0.7019,-8.6630,1.4658,4.3212,-0.0920,-0.2975,0.0791,0.4910,-0.3796,0.3706,0.6910,0.5592,0.4117,0.5876,-0.4150,-9.7900,-0.3700,-0.3900,0.0000,0.0000,0.0000,0.4153,0.6104,0.4677,0.4858,2.7200,9.2900,-1.6000,0.0000,0.2000,0.0000,0.2949,0.5530,0.4917,0.6043,3.9000,8.9900,-0.9400,0.0000,-0.2000,0.0000,-0.5030,-0.4903,-0.5114,0.4949,-9.8200,-0.3200,0.1700,0.0000,0.0000,0.0000,-0.4288,-0.5703,0.4444,0.5415,-2.3000,9.4300,-0.4500,0.0000,0.0000,0.0000,0.5208,0.6482,0.1978,0.5188,4.5100,8.5400,0.7000,0.0000,0.0000,0.0000
525832,0,0,1,-22.1704,-15.2710,-10.0854,-3.1860,0.0018,0.0037,-23.7085,-17.7759,0.0503,9.8090,-0.0455,-0.9460,-1.3123,-0.6714,0.0503,9.8090,-0.0455,-0.9460,-1.3123,-0.6714,-8.6638,1.4995,4.3634,-0.0902,-0.3096,0.0788,0.4910,-0.3792,0.3701,0.6915,0.5592,0.4117,0.5876,-0.4150,-9.7900,-0.3700,-0.3900,0.0000,0.0000,0.0000,0.4152,0.6103,0.4678,0.4859,2.7500,9.2800,-1.5900,0.0000,0.1000,0.0000,0.2950,0.5532,0.4915,0.6042,3.9100,9.0000,-0.9000,0.0000,-0.2000,0.0000,-0.5030,-0.4903,-0.5114,0.4949,-9.8200,-0.3200,0.1700,0.0000,0.0000,0.0000,-0.4288,-0.5703,0.4444,0.5415,-2.3000,9.4400,-0.4600,0.0000,0.0000,0.0000,0.5208,0.6482,0.1978,0.5188,4.5100,8.5400,0.7000,0.0000,0.0000,0.0000
525833,0,0,1,-22.1704,-15.2710,-10.0854,-3.1860,-0.0128,0.0055,-23.7085,-17.7759,-0.0024,9.7683,0.0000,-0.9460,-1.3123,-0.3052,-0.0024,9.7683,0.0000,-0.9460,-1.3123,-0.3052,-8.6638,1.4995,4.3634,-0.0902,-0.3096,0.0788,0.4910,-0.3792,0.3701,0.6915,0.5592,0.4117,0.5876,-0.4150,-9.7600,-0.3000,-0.3500,0.0000,0.0000,0.0000,0.4152,0.6101,0.4679,0.4860,2.7400,9.2800,-1.5900,0.0000,0.1000,0.0000,0.2952,0.5535,0.4913,0.6041,3.9400,8.9900,-0.9100,0.0000,-0.2000,0.0000,-0.5029,-0.4904,-0.5114,0.4949,-9.7900,-0.3700,0.4100,0.0000,0.0000,0.0000,-0.4288,-0.5703,0.4444,0.5415,-2.2800,9.4400,-0.4600,0.0000,0.0000,0.0000,0.5208,0.6482,0.1979,0.5189,4.4800,8.5200,0.6800,0.0000,0.0000,0.0000
525834,0,0,1,-22.1704,-15.2710,-10.0854,-3.1860,-0.0220,0.0165,-23.7085,-17.7759,0.0910,9.8378,-0.0814,-0.7935,-1.3428,-0.7324,0.0910,9.8378,-0.0814,-0.7935,-1.3428,-0.7324,-8.7427,1.5302,4.3868,-0.0886,-0.3183,0.0812,0.4911,-0.3786,0.3696,0.6920,0.5593,0.4117,0.5876,-0.4150,-9.7600,-0.3300,-0.3700,0.0000,0.0000,0.0000,0.4151,0.6100,0.4680,0.4861,2.7100,9.2900,-1.6200,0.0000,0.1000,0.0000,0.2953,0.5537,0.4912,0.6040,3.9500,8.9700,-0.8900,0.0000,-0.2000,0.0000,-0.5029,-0.4903,-0.5114,0.4949,-9.7600,-0.4400,0.4600,0.0000,0.0000,0.0000,-0.4288,-0.5702,0.4444,0.5415,-2.2700,9.4600,-0.4600,0.0000,0.0000,0.0000,0.5208,0.6482,0.1979,0.5189,4.4700,8.5400,0.7000,0.0000,0.0000,0.0000
525835,0,0,1,-22.1704,-15.2710,-10.0854,-3.1860,0.0018,-0.0110,-23.7085,-17.7759,0.0383,9.8138,0.0383,-1.0071,-1.2207,-0.5188,0.0383,9.8138,0.0383,-1.0071,-1.2207,-0.5188,-8.7427,1.5302,4.3868,-0.0886,-0.3183,0.0812,0.4911,-0.3786,0.3696,0.6920,0.5593,0.4117,0.5876,-0.4150,-9.7800,-0.3200,-0.3600,0.0000,0.0000,0.0000,0.4151,0.6100,0.4681,0.4861,2.6500,9.2900,-1.6800,0.0000,0.0000,0.0000,0.2954,0.5539,0.4910,0.6039,3.9900,8.9900,-0.8600,0.0000,-0.2000,0.0000,-0.5029,-0.4903,-0.5114,0.4950,-9.7900,-0.4000,0.3300,0.0000,0.0000,0.0000,-0.4288,-0.5702,0.4444,0.5416,-2.3000,9.4400,-0.4600,0.0000,0.0000,0.0000,0.5207,0.6482,0.1980,0.5189,4.5000,8.5400,0.6800,0.0000,0.0000,0.0000
525836,0,0,1,-22.1704,-15.2710,-10.0854,-3.1860,0.0055,-0.0110,-23.7085,-17.7759,0.0311,9.7731,-0.0335,-1.0681,-1.4038,-0.3662,0.0311,9.7731,-0.0335,-1.0681,-1.4038,-0.3662,-8.7427,1.5302,4.3868,-0.0886,-0.3183,0.0812,0.4911,-0.3786,0.3696,0.6920,0.5593,0.4117,0.5876,-0.4150,-9.7600,-0.3000,-0.3800,0.0000,0.0000,0.0000,0.4151,0.6100,0.4681,0.4861,2.6500,9.2900,-1.6800,0.0000,0.0000,0.0000,0.2954,0.5539,0.4910,0.6039,3.9900,8.9900,-0.8600,0.0000,-0.2000,0.0000,-0.5028,-0.4903,-0.5114,0.4950,-9.7400,-0.3700,0.1000,0.0000,0.0000,0.0000,-0.4288,-0.5702,0.4444,0.5416,-2.3000,9.4400,-0.4600,0.0000,0.0000,0.0000,0.5207,0.6482,0.1981,0.5189,4.5200,8.5300,0.6900,0.0000,0.0000,0.0000
525837,0,0,1,-22.1704,-15.2710,-10.0854,-3.1860,-0.0073,-0.0165,-23.7085,-17.7759,0.0407,9.7348,0.0024,-1.0681,-1.2512,-0.4883,0.0407,9.7348,0.0024,-1.0681,-1.2512,-0.4883,-8.7419,1.5604,4.4031,-0.0803,-0.3247,0.0802,0.4912,-0.3781,0.3692,0.6925,0.5593,0.4117,0.5876,-0.4150,-9.7600,-0.3000,-0.3800,0.0000,0.0000,0.0000,0.4151,0.6099,0.4682,0.4861,2.6200,9.3000,-1.7100,0.0000,0.0000,0.0000,0.2956,0.5541,0.4908,0.6038,4.0200,8.9700,-0.8400,0.0000,-0.2000,0.0000,-0.5028,-0.4903,-0.5114,0.4950,-9.7800,-0.2800,-0.0700,0.0000,0.0000,0.0000,-0.4288,-0.5702,0.4444,0.5416,-2.3200,9.4500,-0.4700,0.0000,0.0000,0.0000,0.5207,0.6482,0.1981,0.5189,4.5200,8.5600,0.6800,0.0000,0.0000,0.0000
525838,0,0,1,-22.1704,-15.2930,-10.0854,-3.2080,-0.0165,-0.0201,-23.7085,-17.7759,0.0742,9.7971,-0.0144,-1.0376,-1.2207,-0.3357,0.0742,9.7971,-0.0144,-1.0376,-1.2207,-0.3357,-8.7419,1.5604,4.4031,-0.0803,-0.3247,0.0802,0.4912,-0.3781,0.3692,0.6925,0.5593,0.4116,0.5876,-0.4151,-9.7700,-0.3000,-0.3700,0.0000,0.0000,0.0000,0.4151,0.6099,0.4682,0.4861,2.5900,9.3000,-1.7100,0.0000,0.0000,0.0000,0.2957,0.5543,0.4906,0.6036,4.0400,8.9900,-0.8300,0.0000,-0.2000,0.0000,-0.5028,-0.4903,-0.5114,0.4950,-9.7800,-0.2800,-0.0700,0.0000,0.0000,0.0000,-0.4288,-0.5701,0.4444,0.5416,-2.3300,9.4700,-0.4900,0.0000,0.0000,0.0000,0.5207,0.6482,0.1981,0.5189,4.5200,8.5600,0.6800,0.0000,0.0000,0.0000
525839,0,0,1,-22.1704,-15.2930,-10.0854,-3.2080,-0.0201,0.0165,-23.7085,-17.7759,0.0694,9.7636,-0.0144,-1.0986,-1.2817,-0.6104,0.0694,9.7636,-0.0144,-1.0986,-1.2817,-0.6104,-8.7986,1.5951,4.4012,-0.0760,-0.3268,0.0841,0.4912,-0.3776,0.3687,0.6929,0.5593,0.4116,0.5876,-0.4151,-9.7500,-0.3100,-0.4000,0.0000,0.0000,0.0000,0.4151,0.6099,0.4682,0.4861,2.5300,9.3200,-1.7100,0.0000,0.0000,0.0000,0.2959,0.5545,0.4904,0.6035,4.0600,8.9800,-0.8000,0.0000,-0.2000,0.0000,-0.5028,-0.4903,-0.5115,0.4950,-9.7300,-0.2300,-0.0700,0.0000,0.0000,0.0000,-0.4288,-0.5701,0.4444,0.5417,-2.3800,9.4700,-0.4900,0.0000,0.0000,0.0000,0.5207,0.6482,0.1982,0.5189,4.5500,8.5400,0.7200,0.0000,0.0000,0.0000
525840,0,0,1,-22.1704,-15.2930,-10.0854,-3.2080,-0.0073,0.0128,-23.7085,-17.7759,0.0072,9.7157,-0.0790,-0.8545,-1.1597,-0.5188,0.0072,9.7157,-0.0790,-0.8545,-1.1597,-0.5188,-8.7986,1.5951,4.4012,-0.0760,-0.3268,0.0841,0.4912,-0.3776,0.3687,0.6929,0.5594,0.4116,0.5876,-0.4151,-9.7800,-0.3300,-0.3900,0.0000,0.0000,0.0000,0.4152,0.6099,0.4682,0.4860,2.4500,9.3200,-1.7700,0.0000,0.0000,0.0000,0.2961,0.5547,0.4903,0.6034,4.0800,8.9800,-0.8000,0.0000,-0.2000,0.0000,-0.5028,-0.4903,-0.5115,0.4950,-9.7400,-0.2100,0.0300,0.0000,0.0000,0.0000,-0.4288,-0.5700,0.4445,0.5417,-2.4000,9.4700,-0.4800,0.0000,0.0000,0.0000,0.5206,0.6482,0.1983,0.5189,4.5800,8.5600,0.6800,0.0000,0.0000,0.0000
525841,0,0,1,-22.1704,-15.2930,-10.0854,-3.2080,-0.0110,-0.0092,-23.7085,-17.7759,0.0455,9.7157,-0.0096,-0.9766,-1.4038,-0.6409,0.0455,9.7157,-0.0096,-0.9766,-1.4038,-0.6409,-8.7986,1.5951,4.4012,-0.0760,-0.3268,0.0841,0.4912,-0.3776,0.3687,0.6929,0.5594,0.4116,0.5876,-0.4151,-9.7600,-0.3200,-0.3900,0.0000,0.0000,0.0000,0.4152,0.6099,0.4682,0.4860,2.4500,9.3200,-1.7700,0.0000,0.0000,0.0000,0.2961,0.5547,0.4903,0.6034,4.0800,8.9800,-0.8000,0.0000,-0.2000,0.0000,-0.5028,-0.4903,-0.5115,0.4950,-9.7400,-0.2100,0.0300,0.0000,0.0000,0.0000,-0.4288,-0.5700,0.4445,0.5417,-2.4000,9.4700,-0.4800,0.0000,0.0000,0.0000,0.5206,0.6482,0.1983,0.5189,4.6200,8.5700,0.6900,0.0000,0.0000,0.0000
