LoopCnt,H10Mode,H10AssistLevel,ImuHubConnected,SyncSignal,LeftHipAngle,RightHipAngle,LeftThighAngle,RightThighAngle,LeftHipTorque,RightHipTorque,LeftHipMotorAngle,RightHipMotorAngle,LeftHipImuGlobalAccX,LeftHipImuGlobalAccY,LeftHipImuGlobalAccZ,LeftHipImuGlobalGyrX,LeftHipImuGlobalGyrY,LeftHipImuGlobalGyrZ,RightHipImuGlobalAccX,RightHipImuGlobalAccY,RightHipImuGlobalAccZ,RightHipImuGlobalGyrX,RightHipImuGlobalGyrY,RightHipImuGlobalGyrZ,TrunkIMU_LocalAccX,TrunkIMU_LocalAccY,TrunkIMU_LocalAccZ,TrunkIMU_LocalGyrX,TrunkIMU_LocalGyrY,TrunkIMU_LocalGyrZ,TrunkIMU_QuatW,TrunkIMU_QuatX,TrunkIMU_QuatY,TrunkIMU_QuatZ,L_THIGH_IMU_QuatW,L_THIGH_IMU_QuatX,L_THIGH_IMU_QuatY,L_THIGH_IMU_QuatZ,L_THIGH_IMU_AccX,L_THIGH_IMU_AccY,L_THIGH_IMU_AccZ,L_THIGH_IMU_GyrX,L_THIGH_IMU_GyrY,L_THIGH_IMU_GyrZ,L_SHANK_IMU_QuatW,L_SHANK_IMU_QuatX,L_SHANK_IMU_QuatY,L_SHANK_IMU_QuatZ,L_SHANK_IMU_AccX,L_SHANK_IMU_AccY,L_SHANK_IMU_AccZ,L_SHANK_IMU_GyrX,L_SHANK_IMU_GyrY,L_SHANK_IMU_GyrZ,L_FOOT_IMU_QuatW,L_FOOT_IMU_QuatX,L_FOOT_IMU_QuatY,L_FOOT_IMU_QuatZ,L_FOOT_IMU_AccX,L_FOOT_IMU_AccY,L_FOOT_IMU_AccZ,L_FOOT_IMU_GyrX,L_FOOT_IMU_GyrY,L_FOOT_IMU_GyrZ,R_THIGH_IMU_QuatW,R_THIGH_IMU_QuatX,R_THIGH_IMU_QuatY,R_THIGH_IMU_QuatZ,R_THIGH_IMU_AccX,R_THIGH_IMU_AccY,R_THIGH_IMU_AccZ,R_THIGH_IMU_GyrX,R_THIGH_IMU_GyrY,R_THIGH_IMU_GyrZ,R_SHANK_IMU_QuatW,R_SHANK_IMU_QuatX,R_SHANK_IMU_QuatY,R_SHANK_IMU_QuatZ,R_SHANK_IMU_AccX,R_SHANK_IMU_AccY,R_SHANK_IMU_AccZ,R_SHANK_IMU_GyrX,R_SHANK_IMU_GyrY,R_SHANK_IMU_GyrZ,R_FOOT_IMU_QuatW,R_FOOT_IMU_QuatX,R_FOOT_IMU_QuatY,R_FOOT_IMU_QuatZ,R_FOOT_IMU_AccX,R_FOOT_IMU_AccY,R_FOOT_IMU_AccZ,R_FOOT_IMU_GyrX,R_FOOT_IMU_GyrY,R_FOOT_IMU_GyrZ
41419,0,0,1,0.0000,3.7573,5.4712,1.8896,3.6035,-0.0092,-0.0018,-1.8018,0.8789,0.0144,9.8282,0.0479,0.5798,-1.6785,0.0916,0.0144,9.8282,0.0479,0.5798,-1.6785,0.0916,9.7592,-0.1645,0.1753,-0.0043,0.0039,0.0005,0.6324,-0.3345,-0.6152,-0.3312,0.6788,0.3382,-0.5820,0.2931,9.6600,1.1400,0.9200,0.0000,0.0000,0.0000,0.7052,0.1970,-0.6607,0.1648,9.7600,0.6200,0.4900,0.0000,0.0000,0.0000,0.0879,-0.9745,-0.0203,-0.2049,3.9400,-1.5800,-8.8100,0.0000,0.0000,0.0000,0.7351,0.0766,-0.6641,0.1124,9.7100,-0.3100,1.0400,0.0000,0.0000,0.0000,0.5678,0.4418,-0.5292,0.4496,9.7600,0.3100,0.4800,0.0000,0.0000,0.0000,0.0787,0.9676,-0.0445,0.2357,4.5300,1.3000,-8.5800,0.0000,0.0000,0.0000
41420,0,0,1,0.0000,3.7573,5.4712,1.8896,3.6035,-0.0055,0.0165,-1.8018,0.8789,-0.0215,9.8138,-0.0120,0.6409,-1.8616,-0.0916,-0.0215,9.8138,-0.0120,0.6409,-1.8616,-0.0916,9.7511,-0.1567,0.1982,0.0007,0.0027,0.0018,0.6324,-0.3345,-0.6152,-0.3313,0.6788,0.3382,-0.5820,0.2931,9.6600,1.1300,0.9200,0.0000,0.0000,0.0000,0.7052,0.1970,-0.6607,0.1648,9.7500,0.6200,0.5100,0.0000,0.0000,0.0000,0.0879,-0.9746,-0.0203,-0.2049,3.9400,-1.5700,-8.8200,0.0000,0.0000,0.0000,0.7351,0.0766,-0.6641,0.1124,9.7200,-0.3200,1.0500,0.0000,0.0000,0.0000,0.5678,0.4418,-0.5292,0.4496,9.7800,0.3000,0.4800,0.0000,0.0000,0.0000,0.0787,0.9676,-0.0445,0.2357,4.5300,1.3100,-8.5600,0.0000,0.0000,0.0000
41421,0,0,1,0.0000,3.7573,5.4712,1.8896,3.6035,0.0128,-0.0110,-1.8018,0.8789,-0.0311,9.7492,0.0311,0.7935,-1.7395,-0.0610,-0.0311,9.7492,0.0311,0.7935,-1.7395,-0.0610,9.7511,-0.1567,0.1982,0.0007,0.0027,0.0018,0.6324,-0.3345,-0.6152,-0.3313,0.6789,0.3382,-0.5820,0.2931,9.6800,1.1200,0.9200,0.0000,0.0000,0.0000,0.7052,0.1970,-0.6607,0.1648,9.7500,0.6200,0.5100,0.0000,0.0000,0.0000,0.0879,-0.9746,-0.0203,-0.2049,3.9300,-1.5700,-8.8200,0.0000,0.0000,0.0000,0.7351,0.0767,-0.6641,0.1124,9.7200,-0.3300,1.0600,0.0000,0.0000,0.0000,0.5678,0.4418,-0.5292,0.4496,9.7800,0.3000,0.4800,0.0000,0.0000,0.0000,0.0787,0.9676,-0.0445,0.2357,4.5200,1.2800,-8.5800,0.0000,0.0000,0.0000
41422,0,0,1,0.0000,3.7573,5.4712,1.8896,3.6035,0.0000,0.0037,-1.8018,0.8789,0.0120,9.8210,0.0120,0.6409,-1.5869,-0.0916,0.0120,9.8210,0.0120,0.6409,-1.5869,-0.0916,9.7511,-0.1567,0.1982,0.0007,0.0027,0.0018,0.6324,-0.3345,-0.6152,-0.3313,0.6789,0.3382,-0.5820,0.2931,9.6700,1.1100,0.9300,0.0000,0.0000,0.0000,0.7052,0.1970,-0.6607,0.1648,9.7600,0.6200,0.5200,0.0000,0.0000,0.0000,0.0879,-0.9746,-0.0203,-0.2049,3.9300,-1.5700,-8.8200,0.0000,0.0000,0.0000,0.7351,0.0767,-0.6641,0.1124,9.7150,-0.3300,1.0550,0.0000,0.0000,0.0000,0.5678,0.4418,-0.5292,0.4496,9.7700,0.3000,0.4700,0.0000,0.0000,0.0000,0.0787,0.9676,-0.0445,0.2357,4.5300,1.3000,-8.5700,0.0000,0.0000,0.0000
41423,0,0,1,0.0000,3.7573,5.4712,1.8896,3.6035,0.0037,0.0000,-1.8018,0.8789,-0.0168,9.7779,0.0168,0.5798,-1.8921,0.0000,-0.0168,9.7779,0.0168,0.5798,-1.8921,0.0000,9.7772,-0.1884,0.1948,-0.0075,0.0088,0.0025,0.6324,-0.3345,-0.6152,-0.3313,0.6789,0.3382,-0.5820,0.2931,9.6900,1.1400,0.9200,0.0000,0.0000,0.0000,0.7052,0.1970,-0.6607,0.1648,9.7500,0.6300,0.5100,0.0000,0.0000,0.0000,0.0879,-0.9746,-0.0203,-0.2049,3.9200,-1.5700,-8.8200,0.0000,0.0000,0.0000,0.7351,0.0767,-0.6641,0.1124,9.7100,-0.3300,1.0500,0.0000,0.0000,0.0000,0.5678,0.4418,-0.5292,0.4496,9.7800,0.3100,0.4800,0.0000,0.0000,0.0000,0.0787,0.9676,-0.0445,0.2357,4.5300,1.3000,-8.5700,0.0000,0.0000,0.0000
41424,0,0,1,0.0000,3.7573,5.4712,1.8896,3.6035,0.0037,0.0110,-1.8018,0.8789,-0.0694,9.7875,0.0263,0.7019,-1.7395,-0.2441,-0.0694,9.7875,0.0263,0.7019,-1.7395,-0.2441,9.7772,-0.1884,0.1948,-0.0075,0.0088,0.0025,0.6324,-0.3345,-0.6152,-0.3313,0.6789,0.3382,-0.5820,0.2931,9.6900,1.1400,0.9200,0.0000,0.0000,0.0000,0.7052,0.1970,-0.6607,0.1648,9.7600,0.6200,0.5000,0.0000,0.0000,0.0000,0.0879,-0.9746,-0.0203,-0.2049,3.9400,-1.5700,-8.8200,0.0000,0.0000,0.0000,0.7351,0.0767,-0.6641,0.1124,9.7400,-0.3300,1.0400,0.0000,0.0000,0.0000,0.5678,0.4418,-0.5292,0.4496,9.7800,0.2900,0.4500,0.0000,0.0000,0.0000,0.0787,0.9676,-0.0445,0.2356,4.5300,1.3000,-8.5700,0.0000,0.0000,0.0000
41425,0,0,1,0.0000,3.7573,5.4932,1.8896,3.6255,0.0018,0.0256,-1.8018,0.8789,-0.0120,9.7636,0.0383,0.5798,-1.5259,-0.2441,-0.0120,9.7636,0.0383,0.5798,-1.5259,-0.2441,9.7680,-0.1826,0.1808,-0.0032,0.0080,0.0034,0.6324,-0.3345,-0.6151,-0.3313,0.6789,0.3382,-0.5820,0.2931,9.6500,1.0900,0.9400,0.0000,0.0000,0.0000,0.7052,0.1970,-0.6607,0.1648,9.7600,0.6200,0.5000,0.0000,0.0000,0.0000,0.0879,-0.9746,-0.0203,-0.2049,3.9400,-1.5600,-8.8200,0.0000,0.0000,0.0000,0.7351,0.0767,-0.6641,0.1124,9.7300,-0.3200,1.0500,0.0000,0.0000,0.0000,0.5678,0.4418,-0.5292,0.4496,9.7800,0.2900,0.4500,0.0000,0.0000,0.0000,0.0787,0.9676,-0.0445,0.2357,4.5400,1.3000,-8.5800,0.0000,0.0000,0.0000
41426,0,0,1,0.0000,3.7573,5.4932,1.8896,3.6255,0.0000,0.0201,-1.8018,0.8789,-0.0431,9.7731,0.0144,0.5798,-1.7395,-0.1526,-0.0431,9.7731,0.0144,0.5798,-1.7395,-0.1526,9.7680,-0.1826,0.1808,-0.0032,0.0080,0.0034,0.6324,-0.3345,-0.6151,-0.3313,0.6789,0.3382,-0.5820,0.2931,9.6600,1.1000,0.9300,0.0000,0.0000,0.0000,0.7052,0.1970,-0.6607,0.1648,9.7400,0.6100,0.4800,0.0000,0.0000,0.0000,0.0879,-0.9746,-0.0203,-0.2049,3.9400,-1.5600,-8.8200,0.0000,0.0000,0.0000,0.7351,0.0767,-0.6641,0.1124,9.7300,-0.3200,1.0400,0.0000,0.0000,0.0000,0.5678,0.4418,-0.5292,0.4496,9.7700,0.2900,0.4900,0.0000,0.0000,0.0000,0.0787,0.9676,-0.0445,0.2357,4.5300,1.3000,-8.5700,0.0000,0.0000,0.0000
41427,0,0,1,0.0000,3.7573,5.4932,1.8896,3.6255,-0.0055,-0.0256,-1.8018,0.8789,-0.0407,9.7683,0.0000,0.7324,-1.8921,-0.0916,-0.0407,9.7683,0.0000,0.7324,-1.8921,-0.0916,9.7680,-0.1826,0.1808,-0.0032,0.0080,0.0034,0.6324,-0.3345,-0.6151,-0.3313,0.6789,0.3382,-0.5820,0.2931,9.6600,1.1000,0.9300,0.0000,0.0000,0.0000,0.7052,0.1970,-0.6607,0.1648,9.7500,0.6100,0.4900,0.0000,0.0000,0.0000,0.0879,-0.9746,-0.0203,-0.2049,3.9300,-1.5600,-8.8200,0.0000,0.0000,0.0000,0.7351,0.0767,-0.6641,0.1124,9.7300,-0.3200,1.0400,0.0000,0.0000,0.0000,0.5678,0.4418,-0.5292,0.4496,9.7700,0.3000,0.4800,0.0000,0.0000,0.0000,0.0787,0.9676,-0.0445,0.2357,4.5400,1.2900,-8.5600,0.0000,0.0000,0.0000
41428,0,0,1,0.0000,3.7573,5.4932,1.8896,3.6255,0.0037,0.0183,-1.8018,0.8789,0.0000,9.7923,-0.0072,0.6714,-1.8005,-0.1221,0.0000,9.7923,-0.0072,0.6714,-1.8005,-0.1221,9.7480,-0.1971,0.1819,-0.0067,0.0059,0.0041,0.6324,-0.3345,-0.6151,-0.3313,0.6789,0.3381,-0.5820,0.2931,9.7000,1.1000,0.9400,0.0000,0.0000,0.0000,0.7052,0.1970,-0.6607,0.1648,9.7600,0.6100,0.4900,0.0000,0.0000,0.0000,0.0879,-0.9746,-0.0203,-0.2049,3.9400,-1.5800,-8.8100,0.0000,0.0000,0.0000,0.7351,0.0767,-0.6640,0.1124,9.7300,-0.3300,1.0300,0.0000,0.0000,0.0000,0.5678,0.4418,-0.5292,0.4496,9.8000,0.2800,0.4700,0.0000,0.0000,0.0000,0.0787,0.9676,-0.0445,0.2357,4.5400,1.2900,-8.5600,0.0000,0.0000,0.0000
41429,0,0,1,0.0000,3.7793,5.4932,1.9116,3.6255,0.0092,0.0146,-1.8018,0.8789,-0.0503,9.8330,-0.0168,0.7019,-1.7700,-0.1831,-0.0503,9.8330,-0.0168,0.7019,-1.7700,-0.1831,9.7480,-0.1971,0.1819,-0.0067,0.0059,0.0041,0.6324,-0.3345,-0.6151,-0.3313,0.6789,0.3381,-0.5820,0.2932,9.6700,1.0800,0.9400,0.0000,0.0000,0.0000,0.7052,0.1970,-0.6607,0.1648,9.7700,0.6000,0.4700,0.0000,0.0000,0.0000,0.0879,-0.9746,-0.0203,-0.2049,3.9300,-1.5700,-8.8200,0.0000,0.0000,0.0000,0.7351,0.0767,-0.6640,0.1124,9.7200,-0.3400,1.0500,0.0000,0.0000,0.0000,0.5678,0.4418,-0.5292,0.4496,9.7900,0.3100,0.4600,0.0000,0.0000,0.0000,0.0787,0.9676,-0.0445,0.2357,4.5300,1.3100,-8.5700,0.0000,0.0000,0.0000
41430,0,0,1,0.0000,3.7793,5.4932,1.9116,3.6255,0.0146,-0.0220,-1.8018,0.8789,-0.0287,9.8138,0.0096,0.6714,-1.5869,-0.1831,-0.0287,9.8138,0.0096,0.6714,-1.5869,-0.1831,9.7791,-0.2255,0.1875,-0.0056,0.0040,0.0010,0.6324,-0.3346,-0.6151,-0.3313,0.6789,0.3381,-0.5820,0.2932,9.6500,1.0900,0.9300,0.0000,0.0000,0.0000,0.7052,0.1970,-0.6607,0.1648,9.7700,0.6000,0.4700,0.0000,0.0000,0.0000,0.0879,-0.9746,-0.0203,-0.2049,3.9300,-1.5700,-8.8100,0.0000,0.0000,0.0000,0.7351,0.0767,-0.6640,0.1124,9.7400,-0.3300,1.0500,0.0000,0.0000,0.0000,0.5678,0.4418,-0.5292,0.4496,9.7800,0.3000,0.4500,0.0000,0.0000,0.0000,0.0787,0.9676,-0.0445,0.2356,4.5200,1.3100,-8.5800,0.0000,0.0000,0.0000
41431,0,0,1,0.0000,3.7793,5.4932,1.9116,3.6255,-0.0018,-0.0128,-1.8018,0.8789,-0.0215,9.7731,0.0000,0.5798,-1.8311,-0.0916,-0.0215,9.7731,0.0000,0.5798,-1.8311,-0.0916,9.7791,-0.2255,0.1875,-0.0056,0.0040,0.0010,0.6324,-0.3346,-0.6151,-0.3313,0.6789,0.3381,-0.5820,0.2932,9.6800,1.0900,0.9400,0.0000,0.0000,0.0000,0.7052,0.1970,-0.6607,0.1648,9.7700,0.5900,0.4900,0.0000,0.0000,0.0000,0.0879,-0.9746,-0.0203,-0.2049,3.9300,-1.5700,-8.8100,0.0000,0.0000,0.0000,0.7351,0.0767,-0.6640,0.1123,9.7500,-0.3300,1.0700,0.0000,0.0000,0.0000,0.5678,0.4418,-0.5292,0.4496,9.7800,0.3000,0.4500,0.0000,0.0000,0.0000,0.0787,0.9676,-0.0445,0.2356,4.5200,1.2900,-8.5700,0.0000,0.0000,0.0000
41432,0,0,1,0.0000,3.7793,5.4932,1.9116,3.6255,0.0128,-0.0055,-1.8018,0.8789,-0.0311,9.8138,-0.0192,0.6714,-1.6785,-0.1831,-0.0311,9.8138,-0.0192,0.6714,-1.6785,-0.1831,9.7791,-0.2255,0.1875,-0.0056,0.0040,0.0010,0.6324,-0.3346,-0.6151,-0.3313,0.6789,0.3381,-0.5820,0.2932,9.6800,1.0900,0.9400,0.0000,0.0000,0.0000,0.7052,0.1970,-0.6607,0.1648,9.7400,0.6000,0.5100,0.0000,0.0000,0.0000,0.0879,-0.9746,-0.0202,-0.2049,3.9300,-1.5600,-8.8200,0.0000,0.0000,0.0000,0.7351,0.0768,-0.6640,0.1123,9.7400,-0.3200,1.0500,0.0000,0.0000,0.0000,0.5678,0.4418,-0.5292,0.4496,9.7800,0.2900,0.4800,0.0000,0.0000,0.0000,0.0787,0.9676,-0.0445,0.2356,4.5200,1.3100,-8.5700,0.0000,0.0000,0.0000
41433,0,0,1,0.0000,3.7793,5.4932,1.9116,3.6255,0.0146,0.0110,-1.8018,0.8789,-0.0239,9.7923,0.0239,0.6714,-1.7395,-0.1831,-0.0239,9.7923,0.0239,0.6714,-1.7395,-0.1831,9.7682,-0.2160,0.1820,-0.0048,0.0088,0.0015,0.6324,-0.3346,-0.6151,-0.3313,0.6789,0.3381,-0.5820,0.2932,9.6700,1.1000,0.9300,0.0000,0.0000,0.0000,0.7052,0.1970,-0.6607,0.1649,9.7600,0.5900,0.4800,0.0000,0.0000,0.0000,0.0879,-0.9746,-0.0202,-0.2049,3.9400,-1.5600,-8.8100,0.0000,0.0000,0.0000,0.7351,0.0768,-0.6640,0.1123,9.7400,-0.3200,1.0500,0.0000,0.0000,0.0000,0.5678,0.4418,-0.5292,0.4496,9.7900,0.3000,0.4800,0.0000,0.0000,0.0000,0.0787,0.9676,-0.0445,0.2356,4.5300,1.3100,-8.5800,0.0000,0.0000,0.0000
41434,0,0,1,0.0000,3.7793,5.4932,1.9116,3.6255,0.0037,-0.0201,-1.8018,0.8789,-0.0335,9.8426,-0.0096,0.6714,-1.8311,-0.1526,-0.0335,9.8426,-0.0096,0.6714,-1.8311,-0.1526,9.7682,-0.2160,0.1820,-0.0048,0.0088,0.0015,0.6324,-0.3346,-0.6151,-0.3313,0.6789,0.3381,-0.5819,0.2932,9.6600,1.0900,0.9300,0.0000,0.0000,0.0000,0.7052,0.1970,-0.6607,0.1649,9.7500,0.5600,0.4400,0.0000,0.0000,0.0000,0.0879,-0.9746,-0.0202,-0.2049,3.9200,-1.5600,-8.8200,0.0000,0.0000,0.0000,0.7351,0.0768,-0.6640,0.1123,9.7400,-0.3500,1.0600,0.0000,0.0000,0.0000,0.5678,0.4418,-0.5292,0.4496,9.7900,0.3000,0.4700,0.0000,0.0000,0.0000,0.0787,0.9676,-0.0445,0.2356,4.5300,1.3100,-8.5800,0.0000,0.0000,0.0000
41435,0,0,1,0.0000,3.7793,5.4932,1.9116,3.6255,0.0037,-0.0110,-1.8018,0.8789,-0.0215,9.8282,-0.0048,0.7629,-1.5564,-0.1221,-0.0215,9.8282,-0.0048,0.7629,-1.5564,-0.1221,9.7830,-0.2169,0.1832,-0.0038,0.0030,-0.0005,0.6324,-0.3346,-0.6151,-0.3313,0.6789,0.3381,-0.5819,0.2932,9.6800,1.0900,0.9500,0.0000,0.0000,0.0000,0.7052,0.1970,-0.6607,0.1649,9.7500,0.5600,0.4400,0.0000,0.0000,0.0000,0.0879,-0.9746,-0.0202,-0.2049,3.9300,-1.5800,-8.8200,0.0000,0.0000,0.0000,0.7351,0.0768,-0.6640,0.1123,9.7500,-0.3400,1.0300,0.0000,0.0000,0.0000,0.5678,0.4418,-0.5292,0.4497,9.7600,0.2700,0.4500,0.0000,0.0000,0.0000,0.0787,0.9676,-0.0445,0.2356,4.5100,1.2900,-8.5800,0.0000,0.0000,0.0000
41436,0,0,1,0.0000,3.7793,5.4932,1.9116,3.6255,0.0073,0.0165,-1.8018,0.8789,0.0335,9.8114,0.0096,0.6409,-1.6174,-0.2136,0.0335,9.8114,0.0096,0.6409,-1.6174,-0.2136,9.7830,-0.2169,0.1832,-0.0038,0.0030,-0.0005,0.6324,-0.3346,-0.6151,-0.3313,0.6789,0.3381,-0.5819,0.2932,9.6800,1.0700,0.9400,0.0000,0.0000,0.0000,0.7052,0.1970,-0.6607,0.1649,9.7600,0.5700,0.4300,0.0000,0.0000,0.0000,0.0879,-0.9746,-0.0202,-0.2049,3.9300,-1.5800,-8.8200,0.0000,0.0000,0.0000,0.7351,0.0768,-0.6640,0.1123,9.7400,-0.3400,1.0600,0.0000,0.0000,0.0000,0.5678,0.4418,-0.5292,0.4497,9.7600,0.2700,0.4500,0.0000,0.0000,0.0000,0.0787,0.9676,-0.0445,0.2357,4.5100,1.3200,-8.5800,0.0000,0.0000,0.0000
41437,0,0,1,0.0000,3.7793,5.4932,1.9116,3.6255,0.0146,-0.0256,-1.8018,0.8789,0.0024,9.8186,0.0144,0.7019,-1.8005,-0.3357,0.0024,9.8186,0.0144,0.7019,-1.8005,-0.3357,9.7830,-0.2169,0.1832,-0.0038,0.0030,-0.0005,0.6324,-0.3346,-0.6151,-0.3313,0.6789,0.3381,-0.5819,0.2932,9.6800,1.0700,0.9400,0.0000,0.0000,0.0000,0.7052,0.1970,-0.6607,0.1649,9.7700,0.5700,0.4200,0.0000,0.0000,0.0000,0.0879,-0.9746,-0.0202,-0.2049,3.9400,-1.5600,-8.8100,0.0000,0.0000,0.0000,0.7351,0.0768,-0.6640,0.1123,9.7500,-0.3500,1.0500,0.0000,0.0000,0.0000,0.5678,0.4418,-0.5292,0.4497,9.7800,0.2600,0.4400,0.0000,0.0000,0.0000,0.0787,0.9676,-0.0445,0.2357,4.5100,1.3000,-8.5700,0.0000,0.0000,0.0000
41438,0,0,1,0.0000,3.7793,5.4932,1.9116,3.6255,0.0018,0.0238,-1.8018,0.8789,-0.0335,9.8833,-0.0072,0.6104,-2.1362,-0.2136,-0.0335,9.8833,-0.0072,0.6104,-2.1362,-0.2136,9.7547,-0.2215,0.1840,-0.0076,0.0023,0.0013,0.6324,-0.3346,-0.6151,-0.3314,0.6789,0.3381,-0.5819,0.2932,9.6700,1.1000,0.9400,0.0000,0.0000,0.0000,0.7052,0.1970,-0.6607,0.1649,9.7900,0.5600,0.4300,0.0000,0.0000,0.0000,0.0879,-0.9746,-0.0202,-0.2049,3.9400,-1.5500,-8.8100,0.0000,0.0000,0.0000,0.7351,0.0768,-0.6640,0.1123,9.7500,-0.3500,1.0500,0.0000,0.0000,0.0000,0.5678,0.4418,-0.5292,0.4496,9.7800,0.2500,0.4800,0.0000,0.0000,0.0000,0.0787,0.9676,-0.0445,0.2357,4.5200,1.3200,-8.5700,0.0000,0.0000,0.0000
41439,0,0,1,0.0000,3.7573,5.4712,1.9116,3.6255,0.0073,0.0146,-1.8018,0.8789,0.0000,9.8641,0.0072,0.7629,-1.7090,-0.2136,0.0000,9.8641,0.0072,0.7629,-1.7090,-0.2136,9.7547,-0.2215,0.1840,-0.0076,0.0023,0.0013,0.6324,-0.3346,-0.6151,-0.3314,0.6789,0.3381,-0.5819,0.2932,9.6800,1.0700,0.9400,0.0000,0.0000,0.0000,0.7052,0.1970,-0.6607,0.1649,9.7700,0.5500,0.4300,0.0000,0.0000,0.0000,0.0879,-0.9746,-0.0202,-0.2049,3.9300,-1.5700,-8.8300,0.0000,0.0000,0.0000,0.7351,0.0768,-0.6640,0.1123,9.7500,-0.3400,1.0400,0.0000,0.0000,0.0000,0.5678,0.4418,-0.5292,0.4496,9.7700,0.2300,0.5100,0.0000,0.0000,0.0000,0.0787,0.9676,-0.0445,0.2357,4.5200,1.3200,-8.5700,0.0000,0.0000,0.0000
41440,0,0,1,0.0000,3.7573,5.4712,1.9116,3.6255,0.0037,0.0183,-1.8018,0.8789,0.0048,9.8713,-0.0024,0.7935,-1.7395,-0.1221,0.0048,9.8713,-0.0024,0.7935,-1.7395,-0.1221,9.7815,-0.2108,0.1674,-0.0083,0.0067,-0.0001,0.6324,-0.3346,-0.6151,-0.3314,0.6789,0.3381,-0.5819,0.2932,9.7100,1.0600,0.9200,0.0000,0.0000,0.0000,0.7052,0.1970,-0.6607,0.1649,9.7700,0.5500,0.4300,0.0000,0.0000,0.0000,0.0879,-0.9746,-0.0202,-0.2049,3.9300,-1.5700,-8.8300,0.0000,0.0000,0.0000,0.7351,0.0769,-0.6640,0.1123,9.7500,-0.3700,1.0300,0.0000,0.0000,0.0000,0.5678,0.4418,-0.5292,0.4496,9.7700,0.2300,0.5100,0.0000,0.0000,0.0000,0.0787,0.9676,-0.0445,0.2357,4.5300,1.2800,-8.5800,0.0000,0.0000,0.0000
41441,0,0,1,0.0000,3.7573,5.4712,1.9116,3.6255,-0.0018,0.0000,-1.8018,0.8789,-0.0455,9.8162,0.0000,0.7019,-1.8921,-0.2441,-0.0455,9.8162,0.0000,0.7019,-1.8921,-0.2441,9.7815,-0.2108,0.1674,-0.0083,0.0067,-0.0001,0.6324,-0.3346,-0.6151,-0.3314,0.6789,0.3381,-0.5819,0.2933,9.7000,1.0400,0.9400,0.0000,0.0000,0.0000,0.7052,0.1970,-0.6607,0.1649,9.7600,0.5700,0.4600,0.0000,0.0000,0.0000,0.0879,-0.9746,-0.0202,-0.2049,3.9300,-1.5700,-8.8300,0.0000,0.0000,0.0000,0.7351,0.0769,-0.6640,0.1123,9.7400,-0.3500,1.0300,0.0000,0.0000,0.0000,0.5678,0.4419,-0.5292,0.4497,9.7800,0.2700,0.4900,0.0000,0.0000,0.0000,0.0787,0.9676,-0.0445,0.2357,4.5300,1.3000,-8.5800,0.0000,0.0000,0.0000
41442,0,0,1,0.0000,3.7573,5.4712,1.9116,3.6255,0.0128,0.0073,-1.8018,0.8789,0.0575,9.8545,0.0072,0.6409,-1.9531,-0.2136,0.0575,9.8545,0.0072,0.6409,-1.9531,-0.2136,9.7815,-0.2108,0.1674,-0.0083,0.0067,-0.0001,0.6324,-0.3346,-0.6151,-0.3314,0.6789,0.3381,-0.5819,0.2933,9.7000,1.0400,0.9400,0.0000,0.0000,0.0000,0.7052,0.1970,-0.6607,0.1649,9.7600,0.5800,0.4900,0.0000,0.0000,0.0000,0.0879,-0.9746,-0.0202,-0.2049,3.9300,-1.5600,-8.8200,0.0000,0.0000,0.0000,0.7351,0.0769,-0.6640,0.1123,9.7300,-0.3500,1.0200,0.0000,0.0000,0.0000,0.5678,0.4419,-0.5292,0.4497,9.7600,0.2300,0.4700,0.0000,0.0000,0.0000,0.0787,0.9676,-0.0445,0.2356,4.5300,1.2900,-8.5800,0.0000,0.0000,0.0000
41443,0,0,1,0.0000,3.7573,5.4932,1.9116,3.6475,0.0055,-0.0073,-1.8018,0.8789,-0.0575,9.8378,-0.0048,0.7324,-1.7090,-0.2441,-0.0575,9.8378,-0.0048,0.7324,-1.7090,-0.2441,9.7885,-0.1814,0.2148,-0.0054,0.0105,-0.0027,0.6324,-0.3346,-0.6150,-0.3314,0.6789,0.3381,-0.5819,0.2933,9.7000,1.0800,0.9300,0.0000,0.0000,0.0000,0.7052,0.1970,-0.6607,0.1649,9.7600,0.6000,0.5100,0.0000,0.0000,0.0000,0.0879,-0.9746,-0.0202,-0.2049,3.9300,-1.5700,-8.8100,0.0000,0.0000,0.0000,0.7351,0.0769,-0.6640,0.1123,9.7300,-0.3500,1.0200,0.0000,0.0000,0.0000,0.5678,0.4419,-0.5292,0.4496,9.7700,0.2300,0.4700,0.0000,0.0000,0.0000,0.0787,0.9676,-0.0445,0.2356,4.5300,1.2900,-8.5800,0.0000,0.0000,0.0000
41444,0,0,1,0.0000,3.7573,5.4932,1.9116,3.6475,-0.0073,0.0037,-1.8018,0.8789,0.0000,9.8330,0.0000,0.6409,-1.7090,-0.1221,0.0000,9.8330,0.0000,0.6409,-1.7090,-0.1221,9.7885,-0.1814,0.2148,-0.0054,0.0105,-0.0027,0.6324,-0.3346,-0.6150,-0.3314,0.6789,0.3381,-0.5819,0.2933,9.7000,1.0900,0.9200,0.0000,0.0000,0.0000,0.7052,0.1970,-0.6607,0.1649,9.7700,0.5800,0.5100,0.0000,0.0000,0.0000,0.0879,-0.9746,-0.0202,-0.2049,3.9300,-1.5800,-8.8200,0.0000,0.0000,0.0000,0.7351,0.0769,-0.6640,0.1122,9.7400,-0.3500,1.0400,0.0000,0.0000,0.0000,0.5678,0.4419,-0.5292,0.4496,9.7600,0.2400,0.4700,0.0000,0.0000,0.0000,0.0787,0.9676,-0.0445,0.2356,4.5300,1.2900,-8.5800,0.0000,0.0000,0.0000
41445,0,0,1,0.0000,3.7573,5.4932,1.9116,3.6475,0.0110,0.0110,-1.8018,0.8789,0.0527,9.7731,0.0479,0.8850,-1.8921,-0.2747,0.0527,9.7731,0.0479,0.8850,-1.8921,-0.2747,9.7861,-0.1959,0.1764,-0.0014,0.0105,-0.0024,0.6324,-0.3346,-0.6150,-0.3314,0.6789,0.3381,-0.5819,0.2933,9.7200,1.0700,0.9300,0.0000,0.0000,0.0000,0.7052,0.1970,-0.6607,0.1649,9.7900,0.5900,0.4700,0.0000,0.0000,0.0000,0.0879,-0.9746,-0.0202,-0.2049,3.9500,-1.5500,-8.8100,0.0000,0.0000,0.0000,0.7351,0.0769,-0.6640,0.1122,9.7500,-0.3700,1.0300,0.0000,0.0000,0.0000,0.5678,0.4419,-0.5292,0.4496,9.7600,0.2400,0.4700,0.0000,0.0000,0.0000,0.0787,0.9676,-0.0445,0.2356,4.5400,1.3100,-8.5800,0.0000,0.0000,0.0000
41446,0,0,1,0.0000,3.7573,5.4932,1.9116,3.6475,0.0037,-0.0201,-1.8018,0.8789,0.0335,9.8114,-0.0048,0.6714,-1.8921,-0.1831,0.0335,9.8114,-0.0048,0.6714,-1.8921,-0.1831,9.7861,-0.1959,0.1764,-0.0014,0.0105,-0.0024,0.6324,-0.3346,-0.6150,-0.3314,0.6789,0.3381,-0.5819,0.2933,9.6800,1.0700,0.9400,0.0000,0.0000,0.0000,0.7052,0.1970,-0.6607,0.1649,9.7900,0.5900,0.4700,0.0000,0.0000,0.0000,0.0879,-0.9746,-0.0202,-0.2048,3.9400,-1.5600,-8.8100,0.0000,0.0000,0.0000,0.7351,0.0769,-0.6640,0.1122,9.7400,-0.3700,1.0300,0.0000,0.0000,0.0000,0.5678,0.4419,-0.5292,0.4496,9.7700,0.2400,0.4900,0.0000,0.0000,0.0000,0.0787,0.9676,-0.0445,0.2356,4.5400,1.2900,-8.5800,0.0000,0.0000,0.0000
41447,0,0,1,0.0000,3.7573,5.4932,1.9116,3.6475,-0.0018,-0.0128,-1.8018,0.8789,0.0455,9.8019,0.0192,0.5798,-1.7395,-0.1526,0.0455,9.8019,0.0192,0.5798,-1.7395,-0.1526,9.7861,-0.1959,0.1764,-0.0014,0.0105,-0.0024,0.6324,-0.3346,-0.6150,-0.3314,0.6789,0.3381,-0.5819,0.2933,9.6800,1.0700,0.9400,0.0000,0.0000,0.0000,0.7051,0.1970,-0.6607,0.1649,9.7700,0.5900,0.4600,0.0000,0.0000,0.0000,0.0879,-0.9746,-0.0202,-0.2048,3.9400,-1.5600,-8.8100,0.0000,0.0000,0.0000,0.7351,0.0770,-0.6640,0.1122,9.7400,-0.3700,1.0100,0.0000,0.0000,0.0000,0.5678,0.4419,-0.5292,0.4496,9.7800,0.2500,0.4800,0.0000,0.0000,0.0000,0.0787,0.9676,-0.0445,0.2356,4.5400,1.3100,-8.5800,0.0000,0.0000,0.0000
41448,0,0,1,0.0000,3.7573,5.4932,1.9116,3.6475,-0.0037,-0.0092,-1.8018,0.8789,0.0048,9.8330,0.0263,0.6409,-1.7395,-0.1526,0.0048,9.8330,0.0263,0.6409,-1.7395,-0.1526,9.7903,-0.1902,0.2142,-0.0102,0.0084,0.0038,0.6324,-0.3346,-0.6150,-0.3314,0.6789,0.3381,-0.5819,0.2933,9.6700,1.0900,0.9000,0.0000,0.0000,0.0000,0.7051,0.1970,-0.6607,0.1650,9.7800,0.6000,0.4500,0.0000,0.0000,0.0000,0.0879,-0.9746,-0.0202,-0.2048,3.9200,-1.5600,-8.8100,0.0000,0.0000,0.0000,0.7351,0.0770,-0.6640,0.1122,9.7400,-0.3700,1.0100,0.0000,0.0000,0.0000,0.5678,0.4418,-0.5292,0.4496,9.7800,0.2300,0.4800,0.0000,0.0000,0.0000,0.0787,0.9676,-0.0445,0.2356,4.5400,1.3200,-8.5600,0.0000,0.0000,0.0000
41449,0,0,1,0.0000,3.7573,5.4932,1.9116,3.6475,0.0037,-0.0128,-1.8018,0.8789,0.0096,9.8210,0.0144,0.7324,-1.8005,-0.1831,0.0096,9.8210,0.0144,0.7324,-1.8005,-0.1831,9.7903,-0.1902,0.2142,-0.0102,0.0084,0.0038,0.6324,-0.3346,-0.6150,-0.3314,0.6789,0.3381,-0.5819,0.2933,9.7200,1.0800,0.9100,0.0000,0.0000,0.0000,0.7051,0.1970,-0.6607,0.1650,9.7600,0.6000,0.4500,0.0000,0.0000,0.0000,0.0879,-0.9746,-0.0202,-0.2048,3.9200,-1.5700,-8.8200,0.0000,0.0000,0.0000,0.7351,0.0770,-0.6640,0.1122,9.7500,-0.3700,1.0100,0.0000,0.0000,0.0000,0.5678,0.4418,-0.5292,0.4496,9.7800,0.2300,0.4700,0.0000,0.0000,0.0000,0.0787,0.9676,-0.0445,0.2356,4.5400,1.3200,-8.5600,0.0000,0.0000,0.0000
41450,0,0,1,0.0000,3.7573,5.4932,1.9116,3.6475,-0.0146,-0.0348,-1.8018,0.8789,0.0144,9.7875,0.0144,0.6104,-1.7090,-0.1526,0.0144,9.7875,0.0144,0.6104,-1.7090,-0.1526,9.8108,-0.1605,0.2096,-0.0046,0.0108,-0.0005,0.6324,-0.3346,-0.6150,-0.3315,0.6789,0.3381,-0.5819,0.2933,9.6700,1.0800,0.9000,0.0000,0.0000,0.0000,0.7051,0.1970,-0.6607,0.1650,9.7600,0.6000,0.4500,0.0000,0.0000,0.0000,0.0879,-0.9746,-0.0202,-0.2048,3.9200,-1.5700,-8.8300,0.0000,0.0000,0.0000,0.7351,0.0770,-0.6640,0.1122,9.7200,-0.3600,1.0200,0.0000,0.0000,0.0000,0.5678,0.4419,-0.5292,0.4496,9.7500,0.2400,0.4700,0.0000,0.0000,0.0000,0.0787,0.9676,-0.0445,0.2356,4.5400,1.3200,-8.5700,0.0000,0.0000,0.0000
41451,0,0,1,0.0000,3.7573,5.4932,1.9116,3.6475,0.0092,0.0201,-1.8018,0.8789,0.0407,9.7588,0.0479,0.6409,-1.7700,0.0000,0.0407,9.7588,0.0479,0.6409,-1.7700,0.0000,9.8108,-0.1605,0.2096,-0.0046,0.0108,-0.0005,0.6324,-0.3346,-0.6150,-0.3315,0.6789,0.3381,-0.5819,0.2933,9.6900,1.0800,0.8800,0.0000,0.0000,0.0000,0.7051,0.1970,-0.6607,0.1650,9.7600,0.6000,0.4600,0.0000,0.0000,0.0000,0.0879,-0.9746,-0.0202,-0.2048,3.9300,-1.5500,-8.8200,0.0000,0.0000,0.0000,0.7351,0.0770,-0.6640,0.1122,9.7200,-0.3700,1.0200,0.0000,0.0000,0.0000,0.5678,0.4419,-0.5292,0.4496,9.7500,0.2400,0.4700,0.0000,0.0000,0.0000,0.0787,0.9676,-0.0445,0.2356,4.5400,1.2900,-8.5900,0.0000,0.0000,0.0000
41452,0,0,1,0.0000,3.7573,5.4932,1.9116,3.6475,-0.0073,0.0110,-1.8018,0.8789,0.0503,9.8617,0.0096,0.8240,-1.8311,-0.0916,0.0503,9.8617,0.0096,0.8240,-1.8311,-0.0916,9.8108,-0.1605,0.2096,-0.0046,0.0108,-0.0005,0.6324,-0.3346,-0.6150,-0.3315,0.6789,0.3381,-0.5819,0.2933,9.6900,1.0800,0.8800,0.0000,0.0000,0.0000,0.7051,0.1970,-0.6607,0.1650,9.7700,0.5800,0.4700,0.0000,0.0000,0.0000,0.0879,-0.9746,-0.0202,-0.2048,3.9300,-1.5500,-8.8200,0.0000,0.0000,0.0000,0.7351,0.0770,-0.6640,0.1122,9.7400,-0.3600,1.0200,0.0000,0.0000,0.0000,0.5678,0.4419,-0.5292,0.4496,9.7700,0.2500,0.4600,0.0000,0.0000,0.0000,0.0787,0.9676,-0.0445,0.2356,4.5300,1.3100,-8.5700,0.0000,0.0000,0.0000
41453,0,0,1,0.0000,3.7793,5.4932,1.9336,3.6475,0.0000,-0.0201,-1.8018,0.8789,0.0048,9.8114,0.0263,0.6409,-1.7090,-0.2441,0.0048,9.8114,0.0263,0.6409,-1.7090,-0.2441,9.7856,-0.1473,0.2397,-0.0092,0.0075,0.0005,0.6324,-0.3346,-0.6150,-0.3315,0.6789,0.3381,-0.5819,0.2933,9.7000,1.0800,0.8900,0.0000,0.0000,0.0000,0.7051,0.1970,-0.6607,0.1650,9.7700,0.5500,0.4400,0.0000,0.0000,0.0000,0.0879,-0.9746,-0.0202,-0.2048,3.9200,-1.5700,-8.8300,0.0000,0.0000,0.0000,0.7351,0.0770,-0.6640,0.1122,9.7400,-0.3600,1.0200,0.0000,0.0000,0.0000,0.5678,0.4419,-0.5292,0.4496,9.7600,0.2400,0.4800,0.0000,0.0000,0.0000,0.0787,0.9676,-0.0445,0.2356,4.5400,1.3000,-8.5650,0.0000,0.0000,0.0000
41454,0,0,1,0.0000,3.7793,5.4932,1.9336,3.6475,0.0110,-0.0201,-1.8018,0.8789,0.0575,9.8426,0.0311,0.6104,-1.6479,-0.1831,0.0575,9.8426,0.0311,0.6104,-1.6479,-0.1831,9.7856,-0.1473,0.2397,-0.0092,0.0075,0.0005,0.6324,-0.3346,-0.6150,-0.3315,0.6789,0.3381,-0.5819,0.2933,9.7000,1.0900,0.8900,0.0000,0.0000,0.0000,0.7051,0.1970,-0.6607,0.1650,9.7900,0.5500,0.4700,0.0000,0.0000,0.0000,0.0879,-0.9746,-0.0202,-0.2048,3.9300,-1.5700,-8.8200,0.0000,0.0000,0.0000,0.7351,0.0771,-0.6640,0.1122,9.7300,-0.3700,1.0100,0.0000,0.0000,0.0000,0.5678,0.4419,-0.5292,0.4496,9.7500,0.2300,0.4700,0.0000,0.0000,0.0000,0.0787,0.9676,-0.0445,0.2356,4.5500,1.2900,-8.5600,0.0000,0.0000,0.0000
41455,0,0,1,0.0000,3.7793,5.4932,1.9336,3.6475,-0.0092,-0.0146,-1.8018,0.8789,0.0622,9.7923,0.0072,0.5798,-1.9836,-0.0610,0.0622,9.7923,0.0072,0.5798,-1.9836,-0.0610,9.8134,-0.1361,0.2364,-0.0025,0.0089,0.0024,0.6324,-0.3346,-0.6149,-0.3315,0.6789,0.3381,-0.5819,0.2933,9.6900,1.0800,0.8800,0.0000,0.0000,0.0000,0.7051,0.1970,-0.6607,0.1650,9.7900,0.5500,0.4700,0.0000,0.0000,0.0000,0.0879,-0.9746,-0.0202,-0.2048,3.9400,-1.5600,-8.7900,0.0000,0.0000,0.0000,0.7351,0.0771,-0.6640,0.1121,9.7200,-0.3900,1.0300,0.0000,0.0000,0.0000,0.5678,0.4419,-0.5292,0.4496,9.7400,0.2300,0.4600,0.0000,0.0000,0.0000,0.0787,0.9676,-0.0445,0.2356,4.5300,1.2900,-8.5700,0.0000,0.0000,0.0000
41456,0,0,1,0.0000,3.7573,5.4712,1.9336,3.6475,-0.0110,-0.0366,-1.8018,0.8789,-0.0048,9.7923,0.0599,0.5493,-1.8616,-0.1831,-0.0048,9.7923,0.0599,0.5493,-1.8616,-0.1831,9.8134,-0.1361,0.2364,-0.0025,0.0089,0.0024,0.6324,-0.3346,-0.6149,-0.3315,0.6789,0.3380,-0.5819,0.2933,9.7000,1.0700,0.9100,0.0000,0.0000,0.0000,0.7051,0.1970,-0.6607,0.1650,9.7900,0.6000,0.4900,0.0000,0.0000,0.0000,0.0879,-0.9746,-0.0202,-0.2048,3.9400,-1.5600,-8.7900,0.0000,0.0000,0.0000,0.7351,0.0771,-0.6640,0.1121,9.7000,-0.3900,1.0200,0.0000,0.0000,0.0000,0.5678,0.4419,-0.5292,0.4496,9.7400,0.2300,0.4600,0.0000,0.0000,0.0000,0.0787,0.9676,-0.0445,0.2356,4.5200,1.3100,-8.5800,0.0000,0.0000,0.0000
41457,0,0,1,0.0000,3.7573,5.4712,1.9336,3.6475,0.0092,-0.0110,-1.8018,0.8789,0.0527,9.8306,0.0670,0.6409,-1.4954,0.0305,0.0527,9.8306,0.0670,0.6409,-1.4954,0.0305,9.8134,-0.1361,0.2364,-0.0025,0.0089,0.0024,0.6324,-0.3346,-0.6149,-0.3315,0.6789,0.3380,-0.5819,0.2933,9.7000,1.0700,0.9100,0.0000,0.0000,0.0000,0.7051,0.1970,-0.6607,0.1650,9.7800,0.6000,0.5100,0.0000,0.0000,0.0000,0.0879,-0.9746,-0.0202,-0.2048,3.9200,-1.5500,-8.8200,0.0000,0.0000,0.0000,0.7351,0.0771,-0.6640,0.1121,9.7000,-0.3900,1.0200,0.0000,0.0000,0.0000,0.5678,0.4419,-0.5292,0.4496,9.7600,0.2400,0.4600,0.0000,0.0000,0.0000,0.0787,0.9676,-0.0445,0.2356,4.5400,1.3100,-8.5600,0.0000,0.0000,0.0000
41458,0,0,1,0.0000,3.7573,5.4712,1.9336,3.6475,0.0092,0.0220,-1.8018,0.8789,0.0096,9.7779,0.0120,0.5188,-1.6785,-0.1831,0.0096,9.7779,0.0120,0.5188,-1.6785,-0.1831,9.8299,-0.1321,0.2778,-0.0062,0.0076,-0.0017,0.6324,-0.3346,-0.6149,-0.3315,0.6789,0.3381,-0.5819,0.2934,9.6600,1.1000,0.9100,0.0000,0.0000,0.0000,0.7051,0.1970,-0.6608,0.1650,9.7800,0.5900,0.5300,0.0000,0.0000,0.0000,0.0879,-0.9746,-0.0202,-0.2048,3.9400,-1.5600,-8.8200,0.0000,0.0000,0.0000,0.7351,0.0771,-0.6640,0.1121,9.7100,-0.3700,1.0300,0.0000,0.0000,0.0000,0.5678,0.4419,-0.5292,0.4496,9.7600,0.2400,0.4600,0.0000,0.0000,0.0000,0.0787,0.9676,-0.0445,0.2356,4.5400,1.3100,-8.5600,0.0000,0.0000,0.0000
41459,0,0,1,0.0000,3.7573,5.4712,1.9336,3.6475,-0.0073,0.0000,-1.8018,0.8789,0.0263,9.8019,0.0144,0.5493,-1.9226,-0.0305,0.0263,9.8019,0.0144,0.5493,-1.9226,-0.0305,9.8299,-0.1321,0.2778,-0.0062,0.0076,-0.0017,0.6324,-0.3346,-0.6149,-0.3315,0.6789,0.3380,-0.5819,0.2934,9.6900,1.1000,0.9000,0.0000,0.0000,0.0000,0.7051,0.1970,-0.6608,0.1650,9.7700,0.6100,0.5300,0.0000,0.0000,0.0000,0.0879,-0.9746,-0.0202,-0.2048,3.9400,-1.5700,-8.8300,0.0000,0.0000,0.0000,0.7351,0.0771,-0.6640,0.1121,9.7200,-0.3800,1.0100,0.0000,0.0000,0.0000,0.5678,0.4419,-0.5292,0.4496,9.7800,0.2400,0.4900,0.0000,0.0000,0.0000,0.0787,0.9676,-0.0444,0.2356,4.5200,1.3100,-8.5600,0.0000,0.0000,0.0000
41460,0,0,1,0.0000,3.7573,5.4712,1.9336,3.6475,-0.0110,-0.0110,-1.8018,0.8789,0.0694,9.7588,0.0551,0.4272,-1.8311,0.0000,0.0694,9.7588,0.0551,0.4272,-1.8311,0.0000,9.8191,-0.1294,0.2602,-0.0036,0.0076,-0.0023,0.6324,-0.3346,-0.6149,-0.3315,0.6789,0.3380,-0.5819,0.2934,9.7000,1.1000,0.9200,0.0000,0.0000,0.0000,0.7051,0.1970,-0.6608,0.1650,9.7700,0.6100,0.5300,0.0000,0.0000,0.0000,0.0879,-0.9746,-0.0202,-0.2048,3.9400,-1.5600,-8.8100,0.0000,0.0000,0.0000,0.7351,0.0771,-0.6640,0.1121,9.7000,-0.3800,1.0200,0.0000,0.0000,0.0000,0.5678,0.4419,-0.5292,0.4496,9.7800,0.2400,0.4900,0.0000,0.0000,0.0000,0.0787,0.9676,-0.0444,0.2356,4.5300,1.2800,-8.5700,0.0000,0.0000,0.0000
41461,0,0,1,0.0000,3.7573,5.4712,1.9336,3.6475,0.0183,-0.0055,-1.8018,0.8789,-0.0144,9.7923,-0.0311,0.4272,-1.5869,-0.0305,-0.0144,9.7923,-0.0311,0.4272,-1.5869,-0.0305,9.8191,-0.1294,0.2602,-0.0036,0.0076,-0.0023,0.6324,-0.3346,-0.6149,-0.3315,0.6789,0.3380,-0.5819,0.2934,9.7000,1.1200,0.9100,0.0000,0.0000,0.0000,0.7051,0.1970,-0.6608,0.1650,9.7700,0.6200,0.5500,0.0000,0.0000,0.0000,0.0879,-0.9746,-0.0202,-0.2048,3.9400,-1.5600,-8.8100,0.0000,0.0000,0.0000,0.7351,0.0771,-0.6640,0.1121,9.7200,-0.3800,1.0200,0.0000,0.0000,0.0000,0.5678,0.4419,-0.5292,0.4496,9.7700,0.2300,0.4800,0.0000,0.0000,0.0000,0.0787,0.9676,-0.0444,0.2356,4.5400,1.2800,-8.5600,0.0000,0.0000,0.0000
41462,0,0,1,0.0000,3.7573,5.4712,1.9336,3.6475,0.0000,-0.0073,-1.8018,0.8789,0.0335,9.7636,0.0431,0.3357,-1.6785,0.0000,0.0335,9.7636,0.0431,0.3357,-1.6785,0.0000,9.8191,-0.1294,0.2602,-0.0036,0.0076,-0.0023,0.6324,-0.3346,-0.6149,-0.3315,0.6789,0.3380,-0.5819,0.2934,9.7000,1.1200,0.9100,0.0000,0.0000,0.0000,0.7051,0.1970,-0.6608,0.1651,9.7600,0.6400,0.5500,0.0000,0.0000,0.0000,0.0879,-0.9746,-0.0202,-0.2048,3.9600,-1.5700,-8.8300,0.0000,0.0000,0.0000,0.7351,0.0771,-0.6640,0.1121,9.7300,-0.3800,1.0300,0.0000,0.0000,0.0000,0.5678,0.4419,-0.5292,0.4496,9.7600,0.2200,0.4600,0.0000,0.0000,0.0000,0.0786,0.9676,-0.0444,0.2356,4.5300,1.3100,-8.5700,0.0000,0.0000,0.0000
41463,0,0,1,0.0000,3.7573,5.4932,1.9336,3.6694,0.0165,-0.0092,-1.8018,0.8789,0.0239,9.8019,-0.0096,0.4883,-1.8616,0.0305,0.0239,9.8019,-0.0096,0.4883,-1.8616,0.0305,9.8296,-0.1280,0.2830,-0.0020,0.0022,0.0002,0.6324,-0.3346,-0.6149,-0.3315,0.6789,0.3380,-0.5819,0.2934,9.7100,1.1100,0.9300,0.0000,0.0000,0.0000,0.7051,0.1970,-0.6608,0.1651,9.7500,0.6400,0.5700,0.0000,0.0000,0.0000,0.0879,-0.9746,-0.0202,-0.2048,3.9400,-1.5800,-8.8100,0.0000,0.0000,0.0000,0.7351,0.0771,-0.6640,0.1121,9.7200,-0.3900,1.0400,0.0000,0.0000,0.0000,0.5678,0.4419,-0.5292,0.4496,9.7700,0.2300,0.4600,0.0000,0.0000,0.0000,0.0786,0.9676,-0.0444,0.2356,4.5300,1.3100,-8.5700,0.0000,0.0000,0.0000
41464,0,0,1,0.0000,3.7573,5.4932,1.9336,3.6694,0.0128,-0.0110,-1.8018,0.8789,-0.0120,9.8402,0.0168,0.3357,-1.6174,0.0000,-0.0120,9.8402,0.0168,0.3357,-1.6174,0.0000,9.8296,-0.1280,0.2830,-0.0020,0.0022,0.0002,0.6324,-0.3346,-0.6149,-0.3315,0.6789,0.3380,-0.5818,0.2934,9.7200,1.1500,0.9300,0.0000,0.0000,0.0000,0.7051,0.1970,-0.6608,0.1651,9.7500,0.6400,0.5700,0.0000,0.0000,0.0000,0.0879,-0.9746,-0.0202,-0.2048,3.9400,-1.5600,-8.8200,0.0000,0.0000,0.0000,0.7351,0.0771,-0.6640,0.1121,9.7200,-0.3900,1.0400,0.0000,0.0000,0.0000,0.5678,0.4419,-0.5292,0.4496,9.7800,0.2200,0.4500,0.0000,0.0000,0.0000,0.0786,0.9676,-0.0444,0.2356,4.5200,1.3000,-8.5900,0.0000,0.0000,0.0000
41465,0,0,1,0.0000,3.7573,5.4932,1.9336,3.6694,0.0055,-0.0146,-1.8018,0.8789,0.0287,9.8282,0.0096,0.2747,-1.5564,-0.0305,0.0287,9.8282,0.0096,0.2747,-1.5564,-0.0305,9.8636,-0.1270,0.2810,0.0024,0.0063,0.0006,0.6324,-0.3346,-0.6149,-0.3315,0.6789,0.3380,-0.5818,0.2934,9.7000,1.1400,0.9400,0.0000,0.0000,0.0000,0.7051,0.1970,-0.6608,0.1651,9.7500,0.6400,0.5700,0.0000,0.0000,0.0000,0.0879,-0.9746,-0.0202,-0.2048,3.9400,-1.5600,-8.8100,0.0000,0.0000,0.0000,0.7351,0.0772,-0.6640,0.1121,9.7100,-0.3800,1.0200,0.0000,0.0000,0.0000,0.5678,0.4419,-0.5292,0.4496,9.7800,0.2200,0.4500,0.0000,0.0000,0.0000,0.0786,0.9676,-0.0444,0.2356,4.5500,1.2900,-8.5700,0.0000,0.0000,0.0000
41466,0,0,1,0.0000,3.7573,5.4932,1.9336,3.6694,0.0110,0.0201,-1.8018,0.8789,0.0192,9.8138,0.0335,0.4272,-1.7700,0.0000,0.0192,9.8138,0.0335,0.4272,-1.7700,0.0000,9.8636,-0.1270,0.2810,0.0024,0.0063,0.0006,0.6324,-0.3346,-0.6149,-0.3315,0.6789,0.3380,-0.5818,0.2934,9.7000,1.1600,0.9400,0.0000,0.0000,0.0000,0.7051,0.1970,-0.6608,0.1651,9.7500,0.6300,0.5600,0.0000,0.0000,0.0000,0.0879,-0.9746,-0.0202,-0.2048,3.9400,-1.5600,-8.8100,0.0000,0.0000,0.0000,0.7351,0.0772,-0.6640,0.1120,9.7100,-0.3600,1.0400,0.0000,0.0000,0.0000,0.5678,0.4419,-0.5292,0.4496,9.7600,0.2300,0.4700,0.0000,0.0000,0.0000,0.0786,0.9676,-0.0444,0.2356,4.5400,1.3200,-8.5700,0.0000,0.0000,0.0000
41467,0,0,1,0.0000,3.7573,5.4932,1.9336,3.6694,-0.0092,-0.0201,-1.8018,0.8789,0.0670,9.8521,0.0311,0.2136,-1.6785,-0.0916,0.0670,9.8521,0.0311,0.2136,-1.6785,-0.0916,9.8636,-0.1270,0.2810,0.0024,0.0063,0.0006,0.6324,-0.3346,-0.6149,-0.3315,0.6789,0.3380,-0.5818,0.2934,9.7400,1.1500,0.9500,0.0000,0.0000,0.0000,0.7051,0.1970,-0.6608,0.1651,9.7600,0.6400,0.5500,0.0000,0.0000,0.0000,0.0879,-0.9746,-0.0202,-0.2048,3.9400,-1.5800,-8.8100,0.0000,0.0000,0.0000,0.7351,0.0772,-0.6640,0.1120,9.7200,-0.3800,1.0300,0.0000,0.0000,0.0000,0.5678,0.4419,-0.5292,0.4495,9.7700,0.2200,0.4600,0.0000,0.0000,0.0000,0.0786,0.9676,-0.0444,0.2356,4.5400,1.3100,-8.5600,0.0000,0.0000,0.0000
41468,0,0,1,0.0000,3.7573,5.4932,1.9336,3.6694,-0.0073,0.0073,-1.8018,0.8789,0.0192,9.8067,0.0168,0.1831,-1.7090,0.0000,0.0192,9.8067,0.0168,0.1831,-1.7090,0.0000,9.8723,-0.1458,0.2667,-0.0043,0.0042,0.0030,0.6325,-0.3346,-0.6149,-0.3316,0.6789,0.3380,-0.5818,0.2934,9.7400,1.1500,0.9500,0.0000,0.0000,0.0000,0.7051,0.1970,-0.6608,0.1651,9.7500,0.6400,0.5700,0.0000,0.0000,0.0000,0.0879,-0.9746,-0.0202,-0.2048,3.9500,-1.6000,-8.8100,0.0000,0.0000,0.0000,0.7351,0.0772,-0.6640,0.1120,9.7200,-0.3800,1.0300,0.0000,0.0000,0.0000,0.5678,0.4419,-0.5292,0.4495,9.7600,0.2200,0.4600,0.0000,0.0000,0.0000,0.0786,0.9676,-0.0444,0.2356,4.5400,1.3100,-8.5600,0.0000,0.0000,0.0000
41469,0,0,1,0.0000,3.7573,5.4932,1.9336,3.6694,-0.0165,-0.0128,-1.8018,0.8789,0.0192,9.8857,0.0120,0.1831,-1.4954,0.0000,0.0192,9.8857,0.0120,0.1831,-1.4954,0.0000,9.8723,-0.1458,0.2667,-0.0043,0.0042,0.0030,0.6325,-0.3346,-0.6149,-0.3316,0.6789,0.3380,-0.5818,0.2934,9.7100,1.1600,0.9700,0.0000,0.0000,0.0000,0.7051,0.1970,-0.6608,0.1652,9.7500,0.6300,0.5500,0.0000,0.0000,0.0000,0.0879,-0.9746,-0.0202,-0.2048,3.9400,-1.5800,-8.8000,0.0000,0.0000,0.0000,0.7351,0.0771,-0.6640,0.1120,9.7400,-0.3900,1.0400,0.0000,0.0000,0.0000,0.5678,0.4419,-0.5292,0.4495,9.7900,0.2300,0.4900,0.0000,0.0000,0.0000,0.0786,0.9676,-0.0444,0.2356,4.5300,1.3100,-8.5800,0.0000,0.0000,0.0000
41470,0,0,1,0.0000,3.7573,5.4932,1.9336,3.6694,-0.0165,0.0092,-1.8018,0.8789,0.0527,9.8330,0.0120,0.0916,-1.7700,0.1526,0.0527,9.8330,0.0120,0.0916,-1.7700,0.1526,9.8816,-0.1358,0.2820,0.0008,0.0016,0.0028,0.6325,-0.3346,-0.6149,-0.3316,0.6789,0.3380,-0.5818,0.2935,9.7200,1.1700,0.9300,0.0000,0.0000,0.0000,0.7051,0.1970,-0.6608,0.1652,9.7400,0.6100,0.5600,0.0000,0.0000,0.0000,0.0879,-0.9746,-0.0202,-0.2048,3.9600,-1.5800,-8.8300,0.0000,0.0000,0.0000,0.7351,0.0771,-0.6640,0.1120,9.7200,-0.4000,1.0400,0.0000,0.0000,0.0000,0.5678,0.4419,-0.5293,0.4495,9.8000,0.2300,0.4800,0.0000,0.0000,0.0000,0.0786,0.9676,-0.0444,0.2356,4.5000,1.3100,-8.5900,0.0000,0.0000,0.0000
41471,0,0,1,0.0000,3.7573,5.4932,1.9336,3.6694,0.0037,-0.0037,-1.8018,0.8789,0.0335,9.8474,0.0144,0.0000,-1.7700,-0.1831,0.0335,9.8474,0.0144,0.0000,-1.7700,-0.1831,9.8816,-0.1358,0.2820,0.0008,0.0016,0.0028,0.6325,-0.3346,-0.6149,-0.3316,0.6789,0.3380,-0.5818,0.2935,9.7500,1.1500,0.9700,0.0000,0.0000,0.0000,0.7051,0.1970,-0.6608,0.1652,9.7400,0.6100,0.5600,0.0000,0.0000,0.0000,0.0879,-0.9746,-0.0202,-0.2048,3.9600,-1.5800,-8.8300,0.0000,0.0000,0.0000,0.7351,0.0772,-0.6640,0.1120,9.7200,-0.4200,1.0200,0.0000,0.0000,0.0000,0.5678,0.4419,-0.5293,0.4495,9.8000,0.2300,0.4800,0.0000,0.0000,0.0000,0.0786,0.9676,-0.0444,0.2356,4.5300,1.3000,-8.5800,0.0000,0.0000,0.0000
41472,0,0,1,0.0000,3.7573,5.4932,1.9336,3.6694,-0.0092,0.0165,-1.8018,0.8789,0.0144,9.8330,0.0000,-0.0305,-1.4038,-0.0305,0.0144,9.8330,0.0000,-0.0305,-1.4038,-0.0305,9.8816,-0.1358,0.2820,0.0008,0.0016,0.0028,0.6325,-0.3346,-0.6149,-0.3316,0.6789,0.3380,-0.5818,0.2935,9.7250,1.1500,0.9600,0.0000,0.0000,0.0000,0.7051,0.1970,-0.6608,0.1652,9.7400,0.6100,0.5200,0.0000,0.0000,0.0000,0.0879,-0.9746,-0.0202,-0.2048,3.9400,-1.5500,-8.8200,0.0000,0.0000,0.0000,0.7352,0.0772,-0.6640,0.1119,9.7500,-0.4400,1.0200,0.0000,0.0000,0.0000,0.5678,0.4419,-0.5293,0.4495,9.7900,0.2200,0.4700,0.0000,0.0000,0.0000,0.0786,0.9676,-0.0444,0.2356,4.5200,1.3200,-8.5800,0.0000,0.0000,0.0000
41473,0,0,1,0.0000,3.7573,5.4932,1.9336,3.6694,-0.0165,0.0110,-1.8018,0.8789,0.0287,9.8569,-0.0096,0.0000,-1.6479,0.0305,0.0287,9.8569,-0.0096,0.0000,-1.6479,0.0305,9.9004,-0.1147,0.2879,0.0020,0.0053,0.0002,0.6325,-0.3346,-0.6149,-0.3316,0.6789,0.3380,-0.5818,0.2935,9.7000,1.1500,0.9500,0.0000,0.0000,0.0000,0.7050,0.1971,-0.6608,0.1652,9.7600,0.5800,0.5200,0.0000,0.0000,0.0000,0.0879,-0.9746,-0.0202,-0.2048,3.9400,-1.5600,-8.8200,0.0000,0.0000,0.0000,0.7352,0.0772,-0.6640,0.1119,9.7500,-0.4400,1.0200,0.0000,0.0000,0.0000,0.5678,0.4419,-0.5293,0.4495,9.7900,0.2100,0.4800,0.0000,0.0000,0.0000,0.0786,0.9676,-0.0444,0.2356,4.5200,1.3200,-8.5800,0.0000,0.0000,0.0000
41474,0,0,1,0.0000,3.7573,5.4932,1.9336,3.6694,0.0037,-0.0018,-1.8018,0.8789,0.0024,9.8138,0.0407,-0.0916,-1.6174,-0.1221,0.0024,9.8138,0.0407,-0.0916,-1.6174,-0.1221,9.9004,-0.1147,0.2879,0.0020,0.0053,0.0002,0.6325,-0.3346,-0.6149,-0.3316,0.6789,0.3380,-0.5818,0.2936,9.7100,1.1800,0.9500,0.0000,0.0000,0.0000,0.7050,0.1971,-0.6608,0.1653,9.7600,0.5600,0.5300,0.0000,0.0000,0.0000,0.0879,-0.9746,-0.0202,-0.2048,3.9200,-1.5800,-8.8300,0.0000,0.0000,0.0000,0.7352,0.0771,-0.6640,0.1119,9.7600,-0.4300,1.0400,0.0000,0.0000,0.0000,0.5678,0.4419,-0.5293,0.4495,9.7800,0.2100,0.4800,0.0000,0.0000,0.0000,0.0786,0.9676,-0.0444,0.2356,4.5200,1.3200,-8.5800,0.0000,0.0000,0.0000
41475,0,0,1,0.0000,3.7573,5.4932,1.9336,3.6694,0.0055,-0.0183,-1.8018,0.8789,-0.0048,9.8904,-0.0072,-0.0916,-1.5564,-0.0305,-0.0048,9.8904,-0.0072,-0.0916,-1.5564,-0.0305,9.9186,-0.1279,0.3270,0.0059,0.0039,0.0029,0.6325,-0.3346,-0.6149,-0.3316,0.6789,0.3380,-0.5818,0.2936,9.7000,1.1600,0.9600,0.0000,0.0000,0.0000,0.7050,0.1971,-0.6608,0.1653,9.7600,0.5600,0.5300,0.0000,0.0000,0.0000,0.0879,-0.9746,-0.0202,-0.2048,3.9300,-1.5600,-8.8300,0.0000,0.0000,0.0000,0.7352,0.0772,-0.6640,0.1119,9.7500,-0.4200,1.0400,0.0000,0.0000,0.0000,0.5678,0.4419,-0.5292,0.4495,9.7900,0.2000,0.4500,0.0000,0.0000,0.0000,0.0786,0.9676,-0.0444,0.2356,4.5300,1.3200,-8.5700,0.0000,0.0000,0.0000
41476,0,0,1,0.0000,3.7573,5.4932,1.9336,3.6694,0.0146,-0.0110,-1.8018,0.8789,0.0024,9.8234,-0.0144,-0.3052,-1.7090,-0.0610,0.0024,9.8234,-0.0144,-0.3052,-1.7090,-0.0610,9.9186,-0.1279,0.3270,0.0059,0.0039,0.0029,0.6325,-0.3346,-0.6149,-0.3316,0.6789,0.3380,-0.5818,0.2937,9.7100,1.1700,0.9500,0.0000,0.0000,0.0000,0.7050,0.1971,-0.6608,0.1653,9.7600,0.5400,0.5000,0.0000,0.0000,0.0000,0.0879,-0.9746,-0.0202,-0.2048,3.9300,-1.5400,-8.8200,0.0000,0.0000,0.0000,0.7352,0.0771,-0.6640,0.1119,9.7500,-0.4600,1.0400,0.0000,0.0000,0.0000,0.5678,0.4419,-0.5292,0.4495,9.7900,0.2000,0.4500,0.0000,0.0000,0.0000,0.0786,0.9676,-0.0444,0.2356,4.5200,1.3000,-8.5700,0.0000,0.0000,0.0000
41477,0,0,1,0.0000,3.7573,5.4932,1.9336,3.6694,0.0183,0.0055,-1.8018,0.8789,-0.0263,9.8593,-0.0024,-0.1831,-1.6785,-0.1831,-0.0263,9.8593,-0.0024,-0.1831,-1.6785,-0.1831,9.9186,-0.1279,0.3270,0.0059,0.0039,0.0029,0.6325,-0.3346,-0.6149,-0.3316,0.6789,0.3380,-0.5818,0.2937,9.7100,1.1700,0.9500,0.0000,0.0000,0.0000,0.7050,0.1971,-0.6608,0.1653,9.7700,0.5200,0.5300,0.0000,0.0000,0.0000,0.0879,-0.9746,-0.0202,-0.2048,3.9300,-1.5400,-8.8200,0.0000,0.0000,0.0000,0.7352,0.0771,-0.6640,0.1118,9.7500,-0.4600,1.0400,0.0000,0.0000,0.0000,0.5678,0.4419,-0.5292,0.4495,9.8000,0.2000,0.4500,0.0000,0.0000,0.0000,0.0786,0.9676,-0.0444,0.2356,4.5300,1.2900,-8.5800,0.0000,0.0000,0.0000
41478,0,0,1,0.0000,3.7573,5.4932,1.9336,3.6694,-0.0018,0.0018,-1.8018,0.8789,-0.0335,9.8689,-0.0263,-0.5493,-1.5564,-0.3052,-0.0335,9.8689,-0.0263,-0.5493,-1.5564,-0.3052,9.9333,-0.1439,0.3171,0.0013,0.0049,0.0015,0.6325,-0.3346,-0.6149,-0.3316,0.6789,0.3381,-0.5817,0.2937,9.7000,1.1400,0.9800,0.0000,0.0000,0.0000,0.7050,0.1972,-0.6608,0.1654,9.7500,0.5300,0.5300,0.0000,0.0000,0.0000,0.0879,-0.9746,-0.0202,-0.2048,3.9400,-1.5300,-8.8200,0.0000,0.0000,0.0000,0.7352,0.0771,-0.6640,0.1118,9.7500,-0.4600,1.0400,0.0000,0.0000,0.0000,0.5678,0.4419,-0.5292,0.4495,9.7800,0.2100,0.4600,0.0000,0.0000,0.0000,0.0786,0.9676,-0.0444,0.2356,4.5300,1.2900,-8.5800,0.0000,0.0000,0.0000
41479,0,0,1,0.0000,3.7573,5.4712,1.9336,3.6475,-0.0238,-0.0220,-1.8018,0.8789,0.0263,9.9120,0.0024,-0.2747,-1.4343,-0.1526,0.0263,9.9120,0.0024,-0.2747,-1.4343,-0.1526,9.9333,-0.1439,0.3171,0.0013,0.0049,0.0015,0.6325,-0.3346,-0.6149,-0.3316,0.6788,0.3381,-0.5817,0.2938,9.6900,1.1500,0.9600,0.0000,0.0000,0.0000,0.7050,0.1972,-0.6608,0.1654,9.7600,0.4900,0.5300,0.0000,0.0000,0.0000,0.0879,-0.9746,-0.0202,-0.2048,3.9200,-1.5700,-8.8200,0.0000,0.0000,0.0000,0.7352,0.0771,-0.6640,0.1118,9.7400,-0.4700,1.0300,0.0000,0.0000,0.0000,0.5678,0.4419,-0.5292,0.4495,9.8000,0.2000,0.4800,0.0000,0.0000,0.0000,0.0786,0.9676,-0.0444,0.2356,4.5200,1.3100,-8.5700,0.0000,0.0000,0.0000
41480,0,0,1,0.0000,3.7573,5.4712,1.9336,3.6475,-0.0092,-0.0073,-1.8018,0.8789,0.0311,9.8545,0.0239,-0.6104,-1.4038,-0.0610,0.0311,9.8545,0.0239,-0.6104,-1.4038,-0.0610,9.9659,-0.1414,0.3353,0.0012,0.0028,0.0064,0.6325,-0.3346,-0.6149,-0.3315,0.6788,0.3381,-0.5817,0.2938,9.7100,1.1300,0.9400,0.0000,0.0000,0.0000,0.7050,0.1972,-0.6608,0.1654,9.7600,0.4900,0.5300,0.0000,0.0000,0.0000,0.0879,-0.9746,-0.0202,-0.2048,3.9100,-1.6300,-8.8200,0.0000,0.0000,0.0000,0.7352,0.0771,-0.6640,0.1118,9.7800,-0.4700,1.0300,0.0000,0.0000,0.0000,0.5678,0.4419,-0.5292,0.4495,9.8000,0.2000,0.4800,0.0000,0.0000,0.0000,0.0786,0.9676,-0.0444,0.2356,4.5200,1.3100,-8.5700,0.0000,0.0000,0.0000
41481,0,0,1,0.0000,3.7573,5.4712,1.9336,3.6475,0.0055,-0.0073,-1.8018,0.8789,-0.0742,9.8378,0.0144,-0.5188,-1.5869,-0.2136,-0.0742,9.8378,0.0144,-0.5188,-1.5869,-0.2136,9.9659,-0.1414,0.3353,0.0012,0.0028,0.0064,0.6325,-0.3346,-0.6149,-0.3315,0.6788,0.3381,-0.5817,0.2939,9.6800,1.1200,0.9300,0.0000,0.0000,0.0000,0.7049,0.1972,-0.6608,0.1654,9.7500,0.4800,0.5100,0.0000,0.0000,0.0000,0.0879,-0.9746,-0.0202,-0.2048,3.9100,-1.6500,-8.8100,0.0000,0.0000,0.0000,0.7352,0.0771,-0.6640,0.1118,9.7500,-0.4600,1.0100,0.0000,0.0000,0.0000,0.5678,0.4419,-0.5292,0.4495,9.7800,0.2200,0.4700,0.0000,0.0000,0.0000,0.0786,0.9676,-0.0444,0.2356,4.5300,1.3200,-8.5800,0.0000,0.0000,0.0000
41482,0,0,1,0.0000,3.7573,5.4712,1.9336,3.6475,-0.0146,0.0220,-1.8018,0.8789,-0.0096,9.9216,0.0192,-0.7019,-1.2817,-0.0916,-0.0096,9.9216,0.0192,-0.7019,-1.2817,-0.0916,9.9659,-0.1414,0.3353,0.0012,0.0028,0.0064,0.6325,-0.3346,-0.6149,-0.3315,0.6787,0.3381,-0.5817,0.2939,9.6900,1.1500,0.9100,0.0000,0.0000,0.0000,0.7049,0.1973,-0.6608,0.1654,9.7300,0.4600,0.4800,0.0000,0.0000,0.0000,0.0879,-0.9746,-0.0202,-0.2048,3.9100,-1.6500,-8.8100,0.0000,0.0000,0.0000,0.7352,0.0771,-0.6640,0.1117,9.7600,-0.4700,1.0100,0.0000,0.0000,0.0000,0.5678,0.4419,-0.5292,0.4495,9.7800,0.2300,0.4400,0.0000,0.0000,0.0000,0.0786,0.9676,-0.0444,0.2356,4.5400,1.3200,-8.5800,0.0000,0.0000,0.0000
41483,0,0,1,0.0000,3.7793,5.4932,1.9336,3.6475,-0.0256,-0.0201,-1.8018,0.8789,-0.0383,9.8785,0.0263,-0.7629,-1.2512,0.0305,-0.0383,9.8785,0.0263,-0.7629,-1.2512,0.0305,9.9596,-0.1560,0.3874,0.0053,0.0061,0.0053,0.6325,-0.3346,-0.6149,-0.3315,0.6787,0.3381,-0.5817,0.2939,9.6900,1.1500,0.9100,0.0000,0.0000,0.0000,0.7049,0.1973,-0.6608,0.1655,9.7300,0.4600,0.4800,0.0000,0.0000,0.0000,0.0879,-0.9746,-0.0202,-0.2048,3.9500,-1.6200,-8.8300,0.0000,0.0000,0.0000,0.7352,0.0771,-0.6640,0.1117,9.7600,-0.4700,1.0100,0.0000,0.0000,0.0000,0.5678,0.4419,-0.5292,0.4495,9.7800,0.2200,0.4700,0.0000,0.0000,0.0000,0.0786,0.9676,-0.0444,0.2356,4.5400,1.3200,-8.5800,0.0000,0.0000,0.0000
41484,0,0,1,0.0000,3.7793,5.4932,1.9336,3.6475,0.0110,0.0073,-1.8018,0.8789,0.0287,9.9000,0.0503,-0.6409,-1.4038,-0.0305,0.0287,9.9000,0.0503,-0.6409,-1.4038,-0.0305,9.9596,-0.1560,0.3874,0.0053,0.0061,0.0053,0.6325,-0.3346,-0.6149,-0.3315,0.6787,0.3382,-0.5817,0.2940,9.6600,1.1600,0.9000,0.0000,0.0000,0.0000,0.7049,0.1973,-0.6608,0.1655,9.7500,0.4600,0.4600,0.0000,0.0000,0.0000,0.0879,-0.9746,-0.0202,-0.2048,3.9200,-1.6000,-8.8200,0.0000,0.0000,0.0000,0.7352,0.0771,-0.6640,0.1117,9.7500,-0.4600,1.0000,0.0000,0.0000,0.0000,0.5678,0.4419,-0.5292,0.4495,9.8000,0.2800,0.4300,0.0000,0.0000,0.0000,0.0786,0.9676,-0.0444,0.2356,4.5200,1.3000,-8.5800,0.0000,0.0000,0.0000
41485,0,0,1,0.0000,3.7793,5.4932,1.9336,3.6475,-0.0183,-0.0110,-1.8018,0.8789,-0.0215,9.9072,0.0575,-0.9766,-1.2207,-0.2136,-0.0215,9.9072,0.0575,-0.9766,-1.2207,-0.2136,9.9535,-0.1504,0.4221,0.0042,-0.0008,0.0055,0.6325,-0.3346,-0.6149,-0.3315,0.6787,0.3382,-0.5817,0.2941,9.6900,1.1500,0.8500,0.0000,0.0000,0.0000,0.7049,0.1973,-0.6608,0.1655,9.7500,0.4600,0.4600,0.0000,0.0000,0.0000,0.0879,-0.9746,-0.0202,-0.2048,3.9100,-1.5700,-8.8300,0.0000,0.0000,0.0000,0.7352,0.0771,-0.6640,0.1117,9.7700,-0.4400,0.9900,0.0000,0.0000,0.0000,0.5678,0.4419,-0.5292,0.4495,9.8000,0.2800,0.4300,0.0000,0.0000,0.0000,0.0786,0.9676,-0.0444,0.2356,4.5200,1.3100,-8.5900,0.0000,0.0000,0.0000
41486,0,0,1,0.0000,3.7793,5.4932,1.9336,3.6475,-0.0092,0.0073,-1.8018,0.8789,0.0311,9.8282,0.0239,-1.0986,-1.1902,-0.1831,0.0311,9.8282,0.0239,-1.0986,-1.1902,-0.1831,9.9535,-0.1504,0.4221,0.0042,-0.0008,0.0055,0.6325,-0.3346,-0.6149,-0.3315,0.6786,0.3382,-0.5817,0.2942,9.6700,1.1400,0.8400,0.0000,0.0000,0.0000,0.7049,0.1973,-0.6608,0.1655,9.7500,0.4700,0.4400,0.0000,0.0000,0.0000,0.0879,-0.9746,-0.0202,-0.2048,3.9100,-1.5700,-8.8300,0.0000,0.0000,0.0000,0.7352,0.0770,-0.6640,0.1116,9.7500,-0.4600,1.0000,0.0000,0.0000,0.0000,0.5678,0.4419,-0.5292,0.4495,9.7900,0.2500,0.4600,0.0000,0.0000,0.0000,0.0786,0.9676,-0.0444,0.2356,4.5100,1.3000,-8.5900,0.0000,0.0000,0.0000
41487,0,0,1,0.0000,3.7573,5.4932,1.9116,3.6475,0.0092,0.0238,-1.8018,0.8789,0.0622,9.8210,0.0311,-0.9460,-1.3123,-0.1526,0.0622,9.8210,0.0311,-0.9460,-1.3123,-0.1526,9.9535,-0.1504,0.4221,0.0042,-0.0008,0.0055,0.6325,-0.3346,-0.6149,-0.3315,0.6786,0.3382,-0.5817,0.2942,9.6800,1.1600,0.8600,0.0000,0.0000,0.0000,0.7049,0.1974,-0.6608,0.1655,9.7600,0.4900,0.4300,0.0000,0.0000,0.0000,0.0879,-0.9746,-0.0202,-0.2048,3.9200,-1.5500,-8.8200,0.0000,0.0000,0.0000,0.7352,0.0770,-0.6641,0.1116,9.7600,-0.4300,1.0000,0.0000,0.0000,0.0000,0.5678,0.4419,-0.5292,0.4495,9.7800,0.2700,0.4700,0.0000,0.0000,0.0000,0.0786,0.9676,-0.0444,0.2356,4.5200,1.3200,-8.5900,0.0000,0.0000,0.0000
41488,0,0,1,0.0000,3.7573,5.4932,1.9116,3.6475,-0.0201,-0.0128,-1.8018,0.8789,-0.0096,9.8545,0.0838,-1.1902,-1.4038,-0.1221,-0.0096,9.8545,0.0838,-1.1902,-1.4038,-0.1221,9.9273,-0.1462,0.4441,0.0080,-0.0014,0.0052,0.6325,-0.3346,-0.6149,-0.3315,0.6786,0.3382,-0.5817,0.2942,9.6800,1.1600,0.8600,0.0000,0.0000,0.0000,0.7049,0.1974,-0.6608,0.1656,9.7800,0.5300,0.4400,0.0000,0.0000,0.0000,0.0879,-0.9746,-0.0202,-0.2048,3.9200,-1.5600,-8.8200,0.0000,0.0000,0.0000,0.7352,0.0770,-0.6641,0.1116,9.7600,-0.4300,1.0000,0.0000,0.0000,0.0000,0.5678,0.4419,-0.5292,0.4494,9.8000,0.2500,0.4700,0.0000,0.0000,0.0000,0.0786,0.9676,-0.0444,0.2356,4.5200,1.3200,-8.5900,0.0000,0.0000,0.0000
41489,0,0,1,0.0000,3.7573,5.4932,1.9116,3.6475,0.0092,0.0220,-1.8018,0.8789,-0.0024,9.8186,0.0144,-1.1292,-1.1597,-0.0916,-0.0024,9.8186,0.0144,-1.1292,-1.1597,-0.0916,9.9273,-0.1462,0.4441,0.0080,-0.0014,0.0052,0.6325,-0.3346,-0.6149,-0.3315,0.6786,0.3383,-0.5816,0.2943,9.6800,1.1700,0.8300,0.0000,0.0000,0.0000,0.7049,0.1974,-0.6608,0.1656,9.8000,0.5500,0.4300,0.0000,0.0000,0.0000,0.0879,-0.9746,-0.0202,-0.2048,3.9400,-1.5500,-8.8200,0.0000,0.0000,0.0000,0.7352,0.0770,-0.6641,0.1116,9.7700,-0.4400,1.0000,0.0000,0.0000,0.0000,0.5678,0.4419,-0.5292,0.4494,9.7900,0.2500,0.4700,0.0000,0.0000,0.0000,0.0786,0.9676,-0.0444,0.2356,4.5300,1.3000,-8.5900,0.0000,0.0000,0.0000
41490,0,0,1,0.0000,3.7573,5.4932,1.9116,3.6475,-0.0128,-0.0201,-1.8018,0.8789,0.0024,9.8138,0.0431,-1.2512,-1.0681,-0.0916,0.0024,9.8138,0.0431,-1.2512,-1.0681,-0.0916,9.8970,-0.1373,0.4212,0.0082,-0.0162,0.0067,0.6325,-0.3347,-0.6149,-0.3315,0.6785,0.3383,-0.5816,0.2944,9.7100,1.1500,0.8300,0.0000,0.0000,0.0000,0.7049,0.1974,-0.6608,0.1656,9.8000,0.5500,0.4300,0.0000,0.0000,0.0000,0.0879,-0.9746,-0.0202,-0.2048,3.9200,-1.5800,-8.8300,0.0000,0.0000,0.0000,0.7352,0.0770,-0.6641,0.1115,9.7500,-0.4300,1.0200,0.0000,0.0000,0.0000,0.5678,0.4420,-0.5292,0.4494,9.7900,0.2400,0.4700,0.0000,0.0000,0.0000,0.0786,0.9676,-0.0444,0.2356,4.5100,1.2900,-8.6000,0.0000,0.0000,0.0000
41491,0,0,1,0.0000,3.7573,5.4712,1.9116,3.6255,-0.0110,0.0110,-1.8018,0.8789,-0.0144,9.8114,0.0383,-1.2512,-1.1902,-0.0610,-0.0144,9.8114,0.0383,-1.2512,-1.1902,-0.0610,9.8970,-0.1373,0.4212,0.0082,-0.0162,0.0067,0.6325,-0.3347,-0.6149,-0.3315,0.6785,0.3383,-0.5816,0.2945,9.7200,1.1600,0.8300,0.0000,0.0000,0.0000,0.7048,0.1974,-0.6608,0.1656,9.7900,0.5600,0.4100,0.0000,0.0000,0.0000,0.0879,-0.9746,-0.0202,-0.2048,3.9200,-1.5800,-8.8300,0.0000,0.0000,0.0000,0.7352,0.0770,-0.6641,0.1115,9.7600,-0.4000,1.0100,0.0000,0.0000,0.0000,0.5678,0.4420,-0.5292,0.4494,9.7900,0.2400,0.4700,0.0000,0.0000,0.0000,0.0786,0.9676,-0.0444,0.2356,4.5300,1.3000,-8.5800,0.0000,0.0000,0.0000
41492,0,0,1,0.0000,3.7573,5.4712,1.9116,3.6255,0.0092,-0.0183,-1.8018,0.8789,0.0000,9.8521,0.0694,-1.2817,-1.4038,0.0000,0.0000,9.8521,0.0694,-1.2817,-1.4038,0.0000,9.8970,-0.1373,0.4212,0.0082,-0.0162,0.0067,0.6325,-0.3347,-0.6149,-0.3315,0.6784,0.3383,-0.5816,0.2945,9.6950,1.1650,0.8350,0.0000,0.0000,0.0000,0.7048,0.1975,-0.6608,0.1657,9.7900,0.5700,0.3800,0.0000,0.0000,0.0000,0.0879,-0.9746,-0.0202,-0.2048,3.9400,-1.5900,-8.8300,0.0000,0.0000,0.0000,0.7352,0.0770,-0.6641,0.1115,9.7600,-0.4000,1.0100,0.0000,0.0000,0.0000,0.5678,0.4420,-0.5292,0.4494,9.7900,0.2400,0.4700,0.0000,0.0000,0.0000,0.0786,0.9676,-0.0444,0.2356,4.5500,1.3000,-8.5800,0.0000,0.0000,0.0000
41493,0,0,1,0.0000,3.7793,5.4932,1.9116,3.6255,0.0055,-0.0092,-1.8018,0.8789,0.0096,9.8378,0.0000,-1.4343,-1.2817,-0.1221,0.0096,9.8378,0.0000,-1.4343,-1.2817,-0.1221,9.8635,-0.1775,0.4567,0.0054,-0.0132,0.0063,0.6325,-0.3347,-0.6149,-0.3314,0.6784,0.3384,-0.5816,0.2946,9.6700,1.1700,0.8400,0.0000,0.0000,0.0000,0.7048,0.1975,-0.6608,0.1657,9.7900,0.5900,0.3900,0.0000,0.0000,0.0000,0.0879,-0.9746,-0.0202,-0.2048,3.9300,-1.5800,-8.8200,0.0000,0.0000,0.0000,0.7352,0.0769,-0.6641,0.1115,9.7500,-0.4300,1.0100,0.0000,0.0000,0.0000,0.5678,0.4420,-0.5292,0.4494,9.7800,0.2000,0.4600,0.0000,0.0000,0.0000,0.0786,0.9676,-0.0444,0.2356,4.5500,1.3000,-8.5800,0.0000,0.0000,0.0000
41494,0,0,1,0.0000,3.7793,5.4932,1.9116,3.6255,-0.0165,0.0037,-1.8018,0.8789,-0.0096,9.8282,0.0670,-1.3428,-1.1902,0.0000,-0.0096,9.8282,0.0670,-1.3428,-1.1902,0.0000,9.8635,-0.1775,0.4567,0.0054,-0.0132,0.0063,0.6325,-0.3347,-0.6149,-0.3314,0.6784,0.3384,-0.5816,0.2946,9.7100,1.1700,0.8200,0.0000,0.0000,0.0000,0.7048,0.1975,-0.6608,0.1657,9.7900,0.6000,0.3800,0.0000,0.0000,0.0000,0.0879,-0.9746,-0.0202,-0.2047,3.9300,-1.5800,-8.8100,0.0000,0.0000,0.0000,0.7352,0.0769,-0.6641,0.1114,9.7300,-0.4300,1.0100,0.0000,0.0000,0.0000,0.5678,0.4420,-0.5292,0.4494,9.7800,0.1900,0.4800,0.0000,0.0000,0.0000,0.0786,0.9676,-0.0444,0.2356,4.5500,1.2700,-8.5900,0.0000,0.0000,0.0000
41495,0,0,1,0.0000,3.7793,5.4932,1.9116,3.6255,0.0256,-0.0055,-1.8018,0.8789,0.0192,9.8474,0.0120,-1.2817,-1.2512,0.2441,0.0192,9.8474,0.0120,-1.2817,-1.2512,0.2441,9.8173,-0.1733,0.3955,0.0069,-0.0211,0.0038,0.6325,-0.3347,-0.6149,-0.3314,0.6784,0.3384,-0.5816,0.2947,9.6800,1.1800,0.8300,0.0000,0.0000,0.0000,0.7048,0.1975,-0.6608,0.1657,9.7800,0.6000,0.3600,0.0000,0.0000,0.0000,0.0879,-0.9746,-0.0202,-0.2047,3.9200,-1.5600,-8.8200,0.0000,0.0000,0.0000,0.7352,0.0768,-0.6641,0.1114,9.6900,-0.4300,1.0000,0.0000,0.0000,0.0000,0.5678,0.4420,-0.5292,0.4494,9.7800,0.1800,0.4700,0.0000,0.0000,0.0000,0.0786,0.9676,-0.0444,0.2356,4.5200,1.2900,-8.5900,0.0000,0.0000,0.0000
41496,0,0,1,0.0000,3.7573,5.4932,1.8896,3.6255,-0.0092,0.0165,-1.8018,0.8789,-0.0120,9.8210,0.0527,-1.4038,-1.1292,0.0610,-0.0120,9.8210,0.0527,-1.4038,-1.1292,0.0610,9.8173,-0.1733,0.3955,0.0069,-0.0211,0.0038,0.6325,-0.3347,-0.6149,-0.3314,0.6783,0.3385,-0.5816,0.2948,9.6800,1.1700,0.8400,0.0000,0.0000,0.0000,0.7048,0.1975,-0.6608,0.1657,9.7800,0.6000,0.3600,0.0000,0.0000,0.0000,0.0879,-0.9746,-0.0202,-0.2047,3.9200,-1.5600,-8.8200,0.0000,0.0000,0.0000,0.7352,0.0768,-0.6641,0.1113,9.7400,-0.4500,0.9500,0.0000,0.0000,0.0000,0.5678,0.4420,-0.5292,0.4494,9.7800,0.1800,0.4700,0.0000,0.0000,0.0000,0.0786,0.9676,-0.0444,0.2356,4.5300,1.3100,-8.5900,0.0000,0.0000,0.0000
41497,0,0,1,0.0000,3.7573,5.4932,1.8896,3.6255,0.0110,-0.0238,-1.8018,0.8789,-0.0215,9.7636,0.0622,-1.3733,-1.1902,0.0000,-0.0215,9.7636,0.0622,-1.3733,-1.1902,0.0000,9.8173,-0.1733,0.3955,0.0069,-0.0211,0.0038,0.6325,-0.3347,-0.6149,-0.3314,0.6783,0.3385,-0.5816,0.2949,9.6800,1.1900,0.8500,0.0000,0.0000,0.0000,0.7048,0.1975,-0.6607,0.1657,9.7600,0.6000,0.3200,0.0000,0.0000,0.0000,0.0879,-0.9746,-0.0202,-0.2047,3.9300,-1.5400,-8.8100,0.0000,0.0000,0.0000,0.7352,0.0768,-0.6641,0.1113,9.7400,-0.4200,0.9800,0.0000,0.0000,0.0000,0.5678,0.4420,-0.5292,0.4494,9.7700,0.2000,0.4900,0.0000,0.0000,0.0000,0.0786,0.9676,-0.0444,0.2356,4.5200,1.3200,-8.5700,0.0000,0.0000,0.0000
41498,0,0,1,0.0000,3.7573,5.4712,1.8896,3.6035,0.0073,-0.0275,-1.8018,0.8789,0.0000,9.7971,0.0551,-1.2512,-1.2817,-0.0610,0.0000,9.7971,0.0551,-1.2512,-1.2817,-0.0610,9.7664,-0.2243,0.2872,0.0048,-0.0260,0.0031,0.6324,-0.3347,-0.6150,-0.3314,0.6783,0.3385,-0.5816,0.2949,9.6800,1.1900,0.8500,0.0000,0.0000,0.0000,0.7048,0.1975,-0.6607,0.1657,9.7600,0.5800,0.2500,0.0000,0.0000,0.0000,0.0879,-0.9746,-0.0202,-0.2047,3.9300,-1.5300,-8.8200,0.0000,0.0000,0.0000,0.7352,0.0768,-0.6641,0.1113,9.7400,-0.4200,0.9800,0.0000,0.0000,0.0000,0.5679,0.4420,-0.5292,0.4494,9.7900,0.1800,0.4700,0.0000,0.0000,0.0000,0.0786,0.9676,-0.0444,0.2356,4.5200,1.3200,-8.5700,0.0000,0.0000,0.0000
41499,0,0,1,0.0000,3.7573,5.4712,1.8896,3.6035,0.0092,-0.0128,-1.8018,0.8789,0.0192,9.8737,0.0934,-1.1292,-1.3428,0.0000,0.0192,9.8737,0.0934,-1.1292,-1.3428,0.0000,9.7664,-0.2243,0.2872,0.0048,-0.0260,0.0031,0.6324,-0.3347,-0.6150,-0.3314,0.6783,0.3385,-0.5816,0.2949,9.6900,1.1900,0.8600,0.0000,0.0000,0.0000,0.7048,0.1975,-0.6607,0.1658,9.7700,0.6300,0.2800,0.0000,0.0000,0.0000,0.0879,-0.9746,-0.0202,-0.2047,3.9200,-1.5500,-8.8100,0.0000,0.0000,0.0000,0.7352,0.0767,-0.6642,0.1112,9.7300,-0.4200,1.0200,0.0000,0.0000,0.0000,0.5679,0.4420,-0.5292,0.4494,9.7900,0.1600,0.4800,0.0000,0.0000,0.0000,0.0786,0.9676,-0.0444,0.2356,4.5400,1.3000,-8.5700,0.0000,0.0000,0.0000
41500,0,0,1,0.0000,3.7573,5.4712,1.8896,3.6035,-0.0092,-0.0055,-1.8018,0.8789,-0.0144,9.8761,0.0455,-1.2512,-1.1292,0.1526,-0.0144,9.8761,0.0455,-1.2512,-1.1292,0.1526,9.7369,-0.1932,0.2253,0.0086,-0.0307,0.0037,0.6324,-0.3347,-0.6150,-0.3314,0.6782,0.3385,-0.5815,0.2950,9.7000,1.1900,0.8600,0.0000,0.0000,0.0000,0.7048,0.1975,-0.6607,0.1658,9.7700,0.6300,0.2800,0.0000,0.0000,0.0000,0.0879,-0.9746,-0.0202,-0.2047,3.9300,-1.5500,-8.8200,0.0000,0.0000,0.0000,0.7352,0.0767,-0.6642,0.1112,9.7500,-0.4300,1.0100,0.0000,0.0000,0.0000,0.5679,0.4420,-0.5292,0.4494,9.7800,0.1700,0.4700,0.0000,0.0000,0.0000,0.0786,0.9676,-0.0444,0.2356,4.5300,1.3000,-8.5900,0.0000,0.0000,0.0000
41501,0,0,1,0.0000,3.7793,5.4932,1.8896,3.6035,0.0183,0.0055,-1.8018,0.8789,-0.0144,9.7923,0.0455,-1.0376,-1.1597,0.0916,-0.0144,9.7923,0.0455,-1.0376,-1.1597,0.0916,9.7369,-0.1932,0.2253,0.0086,-0.0307,0.0037,0.6324,-0.3347,-0.6150,-0.3314,0.6782,0.3386,-0.5815,0.2951,9.6800,1.1700,0.8800,0.0000,0.0000,0.0000,0.7048,0.1975,-0.6607,0.1658,9.7700,0.6700,0.3300,0.0000,0.0000,0.0000,0.0879,-0.9746,-0.0202,-0.2047,3.9300,-1.5500,-8.8200,0.0000,0.0000,0.0000,0.7352,0.0767,-0.6642,0.1111,9.7700,-0.4300,0.9900,0.0000,0.0000,0.0000,0.5679,0.4420,-0.5292,0.4494,9.7800,0.1700,0.4700,0.0000,0.0000,0.0000,0.0786,0.9676,-0.0444,0.2356,4.5300,1.3000,-8.5600,0.0000,0.0000,0.0000
41502,0,0,1,0.0000,3.7793,5.4932,1.8896,3.6035,-0.0037,-0.0092,-1.8018,0.8789,-0.0431,9.8545,0.0407,-1.0681,-1.5259,0.0000,-0.0431,9.8545,0.0407,-1.0681,-1.5259,0.0000,9.7369,-0.1932,0.2253,0.0086,-0.0307,0.0037,0.6324,-0.3347,-0.6150,-0.3314,0.6782,0.3386,-0.5815,0.2951,9.6900,1.1500,0.8800,0.0000,0.0000,0.0000,0.7048,0.1975,-0.6607,0.1658,9.7600,0.6600,0.3200,0.0000,0.0000,0.0000,0.0879,-0.9746,-0.0202,-0.2047,3.9300,-1.5200,-8.8200,0.0000,0.0000,0.0000,0.7352,0.0766,-0.6642,0.1111,9.7800,-0.4100,1.0100,0.0000,0.0000,0.0000,0.5679,0.4420,-0.5292,0.4494,9.7800,0.1800,0.4700,0.0000,0.0000,0.0000,0.0786,0.9676,-0.0444,0.2356,4.5400,1.2900,-8.5800,0.0000,0.0000,0.0000
41503,0,0,1,0.0000,3.7793,5.4932,1.8896,3.6035,0.0055,0.0018,-1.8018,0.8789,-0.0168,9.7731,0.0479,-1.2207,-1.2817,-0.0916,-0.0168,9.7731,0.0479,-1.2207,-1.2817,-0.0916,9.7187,-0.2407,0.1098,0.0018,-0.0288,0.0034,0.6323,-0.3348,-0.6151,-0.3313,0.6782,0.3386,-0.5815,0.2951,9.6900,1.1500,0.8800,0.0000,0.0000,0.0000,0.7048,0.1975,-0.6607,0.1658,9.7600,0.6500,0.2800,0.0000,0.0000,0.0000,0.0879,-0.9746,-0.0202,-0.2047,3.9300,-1.5100,-8.8100,0.0000,0.0000,0.0000,0.7352,0.0766,-0.6642,0.1111,9.7800,-0.4100,1.0100,0.0000,0.0000,0.0000,0.5679,0.4420,-0.5292,0.4493,9.7600,0.1800,0.4700,0.0000,0.0000,0.0000,0.0786,0.9676,-0.0444,0.2356,4.5400,1.3000,-8.5700,0.0000,0.0000,0.0000
41504,0,0,1,0.0000,3.7573,5.4932,1.8677,3.6035,-0.0018,0.0073,-1.8018,0.8789,-0.0215,9.8378,0.0383,-0.8850,-1.4038,0.3052,-0.0215,9.8378,0.0383,-0.8850,-1.4038,0.3052,9.7187,-0.2407,0.1098,0.0018,-0.0288,0.0034,0.6323,-0.3348,-0.6151,-0.3313,0.6781,0.3386,-0.5815,0.2952,9.6800,1.1400,0.8800,0.0000,0.0000,0.0000,0.7048,0.1975,-0.6607,0.1659,9.7500,0.6700,0.2900,0.0000,0.0000,0.0000,0.0879,-0.9746,-0.0202,-0.2048,3.9400,-1.5200,-8.8300,0.0000,0.0000,0.0000,0.7352,0.0766,-0.6642,0.1110,9.7400,-0.3600,1.0200,0.0000,0.0000,0.0000,0.5679,0.4420,-0.5291,0.4493,9.7500,0.1900,0.4700,0.0000,0.0000,0.0000,0.0786,0.9676,-0.0444,0.2356,4.5400,1.3000,-8.5700,0.0000,0.0000,0.0000
41505,0,0,1,0.0000,3.7573,5.4932,1.8677,3.6035,-0.0037,0.0073,-1.8018,0.8789,-0.0431,9.8186,0.0192,-1.0986,-1.5869,0.0916,-0.0431,9.8186,0.0192,-1.0986,-1.5869,0.0916,9.6992,-0.2238,0.0551,0.0034,-0.0311,0.0012,0.6323,-0.3348,-0.6151,-0.3313,0.6781,0.3387,-0.5815,0.2952,9.6700,1.1200,0.9000,0.0000,0.0000,0.0000,0.7048,0.1975,-0.6607,0.1659,9.7500,0.6700,0.2900,0.0000,0.0000,0.0000,0.0879,-0.9746,-0.0202,-0.2048,3.9500,-1.5400,-8.8200,0.0000,0.0000,0.0000,0.7352,0.0766,-0.6642,0.1110,9.7400,-0.3800,1.0300,0.0000,0.0000,0.0000,0.5679,0.4420,-0.5291,0.4493,9.7500,0.1900,0.4700,0.0000,0.0000,0.0000,0.0786,0.9676,-0.0444,0.2356,4.5300,1.3000,-8.5800,0.0000,0.0000,0.0000
41506,0,0,1,0.0000,3.7573,5.4932,1.8677,3.6035,0.0037,0.0055,-1.8018,0.8789,-0.0311,9.8330,0.0694,-1.0986,-1.4954,0.3052,-0.0311,9.8330,0.0694,-1.0986,-1.4954,0.3052,9.6992,-0.2238,0.0551,0.0034,-0.0311,0.0012,0.6323,-0.3348,-0.6151,-0.3313,0.6781,0.3387,-0.5815,0.2953,9.7100,1.1200,0.9000,0.0000,0.0000,0.0000,0.7048,0.1975,-0.6607,0.1659,9.7600,0.6900,0.3300,0.0000,0.0000,0.0000,0.0879,-0.9746,-0.0202,-0.2048,3.9500,-1.5400,-8.8200,0.0000,0.0000,0.0000,0.7352,0.0765,-0.6642,0.1109,9.7600,-0.3700,1.0200,0.0000,0.0000,0.0000,0.5679,0.4420,-0.5291,0.4493,9.7600,0.1900,0.5000,0.0000,0.0000,0.0000,0.0786,0.9676,-0.0444,0.2356,4.5200,1.3000,-8.5800,0.0000,0.0000,0.0000
41507,0,0,1,0.0000,3.7573,5.4932,1.8677,3.6035,0.0183,-0.0018,-1.8018,0.8789,-0.0479,9.8450,0.0239,-1.0681,-1.4343,0.1526,-0.0479,9.8450,0.0239,-1.0681,-1.4343,0.1526,9.6992,-0.2238,0.0551,0.0034,-0.0311,0.0012,0.6323,-0.3348,-0.6151,-0.3313,0.6780,0.3387,-0.5815,0.2953,9.7000,1.1000,0.9000,0.0000,0.0000,0.0000,0.7048,0.1975,-0.6607,0.1659,9.7500,0.7100,0.3300,0.0000,0.0000,0.0000,0.0879,-0.9746,-0.0202,-0.2048,3.9300,-1.5300,-8.8100,0.0000,0.0000,0.0000,0.7352,0.0765,-0.6642,0.1109,9.7400,-0.3600,1.0100,0.0000,0.0000,0.0000,0.5679,0.4420,-0.5291,0.4493,9.7800,0.2200,0.5000,0.0000,0.0000,0.0000,0.0786,0.9676,-0.0444,0.2356,4.5400,1.3100,-8.5700,0.0000,0.0000,0.0000
41508,0,0,1,0.0000,3.7573,5.4712,1.8677,3.5815,0.0256,0.0146,-1.8018,0.8789,-0.0431,9.8019,0.0168,-1.0071,-1.4954,0.0000,-0.0431,9.8019,0.0168,-1.0071,-1.4954,0.0000,9.6816,-0.2505,-0.0573,-0.0009,-0.0285,0.0012,0.6323,-0.3348,-0.6152,-0.3313,0.6780,0.3387,-0.5815,0.2953,9.7000,1.1000,0.9000,0.0000,0.0000,0.0000,0.7048,0.1975,-0.6607,0.1659,9.7700,0.6800,0.3400,0.0000,0.0000,0.0000,0.0879,-0.9746,-0.0202,-0.2048,3.9300,-1.5400,-8.8000,0.0000,0.0000,0.0000,0.7352,0.0765,-0.6642,0.1109,9.7400,-0.3600,1.0100,0.0000,0.0000,0.0000,0.5679,0.4420,-0.5291,0.4493,9.7500,0.2200,0.4900,0.0000,0.0000,0.0000,0.0786,0.9676,-0.0444,0.2356,4.5600,1.3300,-8.5800,0.0000,0.0000,0.0000
41509,0,0,1,0.0000,3.7573,5.4712,1.8677,3.5815,0.0092,-0.0165,-1.8018,0.8789,-0.0215,9.8354,0.0311,-1.0071,-1.6174,0.2136,-0.0215,9.8354,0.0311,-1.0071,-1.6174,0.2136,9.6816,-0.2505,-0.0573,-0.0009,-0.0285,0.0012,0.6323,-0.3348,-0.6152,-0.3313,0.6780,0.3388,-0.5815,0.2954,9.6900,1.0800,0.9000,0.0000,0.0000,0.0000,0.7048,0.1975,-0.6607,0.1659,9.7500,0.7000,0.3600,0.0000,0.0000,0.0000,0.0879,-0.9746,-0.0202,-0.2048,3.9400,-1.5500,-8.8200,0.0000,0.0000,0.0000,0.7352,0.0764,-0.6642,0.1108,9.7200,-0.3400,1.0200,0.0000,0.0000,0.0000,0.5680,0.4420,-0.5291,0.4493,9.7500,0.2600,0.4900,0.0000,0.0000,0.0000,0.0786,0.9676,-0.0444,0.2356,4.5600,1.3300,-8.5800,0.0000,0.0000,0.0000
41510,0,0,1,0.0000,3.7793,5.4932,1.8677,3.5815,-0.0055,0.0110,-1.8018,0.8789,-0.0551,9.7827,0.0335,-1.1292,-1.7700,0.2441,-0.0551,9.7827,0.0335,-1.1292,-1.7700,0.2441,9.6818,-0.2044,-0.0704,-0.0019,-0.0202,-0.0035,0.6322,-0.3348,-0.6152,-0.3313,0.6780,0.3388,-0.5815,0.2954,9.7000,1.0800,0.9200,0.0000,0.0000,0.0000,0.7048,0.1975,-0.6607,0.1659,9.7500,0.7000,0.3600,0.0000,0.0000,0.0000,0.0880,-0.9746,-0.0202,-0.2048,3.9400,-1.5300,-8.8300,0.0000,0.0000,0.0000,0.7352,0.0764,-0.6643,0.1108,9.7100,-0.3500,1.0000,0.0000,0.0000,0.0000,0.5680,0.4420,-0.5291,0.4492,9.7600,0.2700,0.4800,0.0000,0.0000,0.0000,0.0786,0.9676,-0.0444,0.2356,4.5300,1.3100,-8.5800,0.0000,0.0000,0.0000
41511,0,0,1,0.0000,3.7793,5.4932,1.8677,3.5815,-0.0018,0.0238,-1.8018,0.8789,-0.0479,9.8306,0.0479,-0.9766,-1.4954,0.2747,-0.0479,9.8306,0.0479,-0.9766,-1.4954,0.2747,9.6818,-0.2044,-0.0704,-0.0019,-0.0202,-0.0035,0.6322,-0.3348,-0.6152,-0.3313,0.6779,0.3388,-0.5815,0.2954,9.6700,1.0500,0.9200,0.0000,0.0000,0.0000,0.7048,0.1975,-0.6607,0.1660,9.7600,0.6700,0.3700,0.0000,0.0000,0.0000,0.0880,-0.9746,-0.0202,-0.2048,3.9400,-1.5700,-8.8300,0.0000,0.0000,0.0000,0.7352,0.0763,-0.6643,0.1107,9.7400,-0.3300,1.0000,0.0000,0.0000,0.0000,0.5680,0.4420,-0.5291,0.4492,9.7600,0.2700,0.4800,0.0000,0.0000,0.0000,0.0786,0.9676,-0.0444,0.2356,4.5300,1.3200,-8.5600,0.0000,0.0000,0.0000
41512,0,0,1,0.0000,3.7793,5.4932,1.8677,3.5815,-0.0146,-0.0110,-1.7798,0.8789,-0.0622,9.8090,-0.0048,-1.0681,-1.7395,0.0000,-0.0622,9.8090,-0.0048,-1.0681,-1.7395,0.0000,9.6818,-0.2044,-0.0704,-0.0019,-0.0202,-0.0035,0.6322,-0.3348,-0.6152,-0.3313,0.6779,0.3389,-0.5815,0.2955,9.6800,1.0400,0.9100,0.0000,0.0000,0.0000,0.7048,0.1975,-0.6607,0.1660,9.7500,0.6600,0.3800,0.0000,0.0000,0.0000,0.0880,-0.9746,-0.0202,-0.2048,3.9400,-1.5700,-8.8300,0.0000,0.0000,0.0000,0.7352,0.0763,-0.6643,0.1107,9.7300,-0.3100,1.0000,0.0000,0.0000,0.0000,0.5680,0.4420,-0.5291,0.4492,9.7500,0.3000,0.4900,0.0000,0.0000,0.0000,0.0786,0.9676,-0.0444,0.2356,4.5200,1.3100,-8.5700,0.0000,0.0000,0.0000
41513,0,0,1,0.0000,3.7793,5.4932,1.8677,3.5815,-0.0073,-0.0110,-1.7798,0.8789,-0.0383,9.7683,0.0527,-0.8240,-1.5564,0.2441,-0.0383,9.7683,0.0527,-0.8240,-1.5564,0.2441,9.7145,-0.1888,-0.0262,-0.0017,-0.0142,-0.0016,0.6322,-0.3348,-0.6152,-0.3312,0.6779,0.3389,-0.5815,0.2955,9.6800,1.0400,0.9100,0.0000,0.0000,0.0000,0.7048,0.1975,-0.6607,0.1660,9.7600,0.6700,0.4200,0.0000,0.0000,0.0000,0.0880,-0.9746,-0.0202,-0.2048,3.9300,-1.5800,-8.8200,0.0000,0.0000,0.0000,0.7352,0.0763,-0.6643,0.1107,9.7300,-0.3100,1.0000,0.0000,0.0000,0.0000,0.5680,0.4420,-0.5291,0.4492,9.7500,0.3100,0.4800,0.0000,0.0000,0.0000,0.0786,0.9676,-0.0444,0.2356,4.5400,1.3200,-8.5800,0.0000,0.0000,0.0000
41514,0,0,1,0.0000,3.7793,5.4932,1.8677,3.5815,0.0110,-0.0073,-1.7798,0.8789,-0.0814,9.7731,0.0551,-0.8545,-1.6785,0.1221,-0.0814,9.7731,0.0551,-0.8545,-1.6785,0.1221,9.7145,-0.1888,-0.0262,-0.0017,-0.0142,-0.0016,0.6322,-0.3348,-0.6152,-0.3312,0.6779,0.3389,-0.5815,0.2955,9.6800,1.0500,0.9400,0.0000,0.0000,0.0000,0.7048,0.1975,-0.6607,0.1660,9.7500,0.6400,0.4200,0.0000,0.0000,0.0000,0.0880,-0.9746,-0.0202,-0.2048,3.9300,-1.5800,-8.8100,0.0000,0.0000,0.0000,0.7352,0.0763,-0.6643,0.1106,9.7400,-0.3000,1.0200,0.0000,0.0000,0.0000,0.5680,0.4420,-0.5291,0.4492,9.7500,0.3100,0.4700,0.0000,0.0000,0.0000,0.0786,0.9676,-0.0444,0.2356,4.5400,1.3200,-8.5800,0.0000,0.0000,0.0000
41515,0,0,1,0.0000,3.7793,5.4932,1.8677,3.5815,-0.0146,-0.0128,-1.7798,0.8789,-0.0694,9.8426,-0.0048,-0.7935,-1.6174,0.1831,-0.0694,9.8426,-0.0048,-0.7935,-1.6174,0.1831,9.7082,-0.1739,0.0292,-0.0005,-0.0155,-0.0013,0.6322,-0.3348,-0.6152,-0.3312,0.6779,0.3389,-0.5815,0.2955,9.6700,1.0300,0.9100,0.0000,0.0000,0.0000,0.7048,0.1975,-0.6607,0.1660,9.7500,0.6400,0.4200,0.0000,0.0000,0.0000,0.0880,-0.9746,-0.0202,-0.2048,3.9300,-1.5600,-8.8000,0.0000,0.0000,0.0000,0.7352,0.0762,-0.6643,0.1106,9.7200,-0.2900,1.0000,0.0000,0.0000,0.0000,0.5680,0.4421,-0.5291,0.4492,9.7600,0.3400,0.4500,0.0000,0.0000,0.0000,0.0786,0.9676,-0.0444,0.2356,4.5300,1.3000,-8.5800,0.0000,0.0000,0.0000
41516,0,0,1,0.0000,3.7793,5.4932,1.8677,3.5815,0.0256,-0.0238,-1.7798,0.8789,-0.0766,9.7540,0.0263,-0.7935,-1.7395,0.1221,-0.0766,9.7540,0.0263,-0.7935,-1.7395,0.1221,9.7082,-0.1739,0.0292,-0.0005,-0.0155,-0.0013,0.6322,-0.3348,-0.6152,-0.3312,0.6779,0.3389,-0.5815,0.2955,9.6500,1.0300,0.9000,0.0000,0.0000,0.0000,0.7048,0.1975,-0.6607,0.1660,9.7500,0.6300,0.4300,0.0000,0.0000,0.0000,0.0880,-0.9746,-0.0202,-0.2048,3.9300,-1.5600,-8.8100,0.0000,0.0000,0.0000,0.7352,0.0762,-0.6643,0.1105,9.7200,-0.2700,1.0100,0.0000,0.0000,0.0000,0.5680,0.4421,-0.5291,0.4492,9.7600,0.3400,0.4500,0.0000,0.0000,0.0000,0.0786,0.9676,-0.0444,0.2356,4.5000,1.3100,-8.5600,0.0000,0.0000,0.0000
41517,0,0,1,0.0000,3.7793,5.4932,1.8677,3.5815,0.0092,0.0055,-1.7798,0.8789,-0.0694,9.7636,0.0168,-0.9155,-1.4038,0.0000,-0.0694,9.7636,0.0168,-0.9155,-1.4038,0.0000,9.7082,-0.1739,0.0292,-0.0005,-0.0155,-0.0013,0.6322,-0.3348,-0.6152,-0.3312,0.6779,0.3389,-0.5815,0.2955,9.6400,1.0500,0.9000,0.0000,0.0000,0.0000,0.7048,0.1975,-0.6607,0.1661,9.7400,0.6200,0.4600,0.0000,0.0000,0.0000,0.0880,-0.9746,-0.0202,-0.2048,3.9300,-1.5600,-8.8100,0.0000,0.0000,0.0000,0.7352,0.0761,-0.6643,0.1105,9.7100,-0.2600,1.0000,0.0000,0.0000,0.0000,0.5680,0.4421,-0.5291,0.4492,9.7600,0.3500,0.4400,0.0000,0.0000,0.0000,0.0786,0.9676,-0.0444,0.2356,4.5100,1.2900,-8.5700,0.0000,0.0000,0.0000
41518,0,0,1,0.0000,3.7573,5.4932,1.8457,3.5815,-0.0055,-0.0037,-1.7798,0.8789,-0.0527,9.8114,0.0383,-0.7324,-1.6785,0.3052,-0.0527,9.8114,0.0383,-0.7324,-1.6785,0.3052,9.7656,-0.1734,0.0892,-0.0002,-0.0122,0.0010,0.6321,-0.3348,-0.6153,-0.3312,0.6779,0.3389,-0.5815,0.2955,9.6400,1.0500,0.9000,0.0000,0.0000,0.0000,0.7048,0.1975,-0.6607,0.1661,9.7400,0.6200,0.4800,0.0000,0.0000,0.0000,0.0880,-0.9746,-0.0202,-0.2048,3.9400,-1.5600,-8.8200,0.0000,0.0000,0.0000,0.7352,0.0761,-0.6643,0.1105,9.7100,-0.2600,1.0000,0.0000,0.0000,0.0000,0.5680,0.4421,-0.5291,0.4492,9.7600,0.3600,0.4500,0.0000,0.0000,0.0000,0.0786,0.9676,-0.0444,0.2356,4.5200,1.3200,-8.5800,0.0000,0.0000,0.0000
41519,0,0,1,0.0000,3.7573,5.4712,1.8457,3.5596,-0.0073,-0.0330,-1.7798,0.8789,-0.0551,9.7731,-0.0096,-0.8240,-1.5259,-0.0916,-0.0551,9.7731,-0.0096,-0.8240,-1.5259,-0.0916,9.7656,-0.1734,0.0892,-0.0002,-0.0122,0.0010,0.6321,-0.3348,-0.6153,-0.3312,0.6778,0.3390,-0.5815,0.2955,9.6700,1.0300,0.8900,0.0000,0.0000,0.0000,0.7048,0.1974,-0.6607,0.1661,9.7400,0.6200,0.5000,0.0000,0.0000,0.0000,0.0880,-0.9746,-0.0202,-0.2048,3.9500,-1.5700,-8.8100,0.0000,0.0000,0.0000,0.7352,0.0761,-0.6643,0.1104,9.6800,-0.2600,1.0000,0.0000,0.0000,0.0000,0.5680,0.4421,-0.5291,0.4491,9.7500,0.3600,0.4500,0.0000,0.0000,0.0000,0.0786,0.9676,-0.0444,0.2356,4.5200,1.3200,-8.5800,0.0000,0.0000,0.0000
41520,0,0,1,0.0000,3.7573,5.4712,1.8457,3.5596,0.0110,-0.0146,-1.7798,0.8789,-0.0814,9.7971,0.0479,-0.7324,-1.5259,0.0610,-0.0814,9.7971,0.0479,-0.7324,-1.5259,0.0610,9.7626,-0.1592,0.1640,-0.0018,-0.0151,0.0014,0.6321,-0.3349,-0.6153,-0.3312,0.6778,0.3390,-0.5815,0.2955,9.6500,1.0400,0.9300,0.0000,0.0000,0.0000,0.7048,0.1974,-0.6607,0.1661,9.7500,0.6000,0.4900,0.0000,0.0000,0.0000,0.0880,-0.9746,-0.0201,-0.2048,3.9300,-1.5900,-8.8000,0.0000,0.0000,0.0000,0.7352,0.0761,-0.6643,0.1103,9.7000,-0.2600,0.9800,0.0000,0.0000,0.0000,0.5680,0.4421,-0.5291,0.4491,9.7500,0.3600,0.4500,0.0000,0.0000,0.0000,0.0786,0.9676,-0.0444,0.2356,4.5300,1.2900,-8.5800,0.0000,0.0000,0.0000
41521,0,0,1,0.0000,3.7573,5.4712,1.8457,3.5596,-0.0165,-0.0128,-1.7798,0.8789,-0.0742,9.7492,0.0000,-0.7324,-1.5564,0.0305,-0.0742,9.7492,0.0000,-0.7324,-1.5564,0.0305,9.7626,-0.1592,0.1640,-0.0018,-0.0151,0.0014,0.6321,-0.3349,-0.6153,-0.3312,0.6778,0.3390,-0.5815,0.2955,9.6100,1.0600,0.9100,0.0000,0.0000,0.0000,0.7048,0.1974,-0.6607,0.1661,9.7500,0.6000,0.4900,0.0000,0.0000,0.0000,0.0880,-0.9746,-0.0201,-0.2048,3.9300,-1.5900,-8.8000,0.0000,0.0000,0.0000,0.7352,0.0760,-0.6643,0.1103,9.6900,-0.2600,0.9700,0.0000,0.0000,0.0000,0.5680,0.4421,-0.5291,0.4491,9.7600,0.3500,0.4700,0.0000,0.0000,0.0000,0.0786,0.9676,-0.0444,0.2356,4.5300,1.2700,-8.5800,0.0000,0.0000,0.0000
41522,0,0,1,0.0000,3.7793,5.4932,1.8457,3.5596,0.0183,-0.0201,-1.7798,0.8789,-0.0934,9.7971,0.0215,-0.8545,-1.7700,0.0610,-0.0934,9.7971,0.0215,-0.8545,-1.7700,0.0610,9.7626,-0.1592,0.1640,-0.0018,-0.0151,0.0014,0.6321,-0.3349,-0.6153,-0.3312,0.6778,0.3390,-0.5815,0.2955,9.6300,1.1000,0.9000,0.0000,0.0000,0.0000,0.7048,0.1974,-0.6606,0.1661,9.7400,0.5900,0.4900,0.0000,0.0000,0.0000,0.0880,-0.9746,-0.0201,-0.2048,3.9400,-1.6000,-8.8100,0.0000,0.0000,0.0000,0.7352,0.0760,-0.6643,0.1103,9.6900,-0.2600,0.9700,0.0000,0.0000,0.0000,0.5680,0.4421,-0.5291,0.4491,9.7700,0.3700,0.4800,0.0000,0.0000,0.0000,0.0786,0.9676,-0.0444,0.2356,4.5300,1.3100,-8.5700,0.0000,0.0000,0.0000
41523,0,0,1,0.0000,3.7793,5.4932,1.8457,3.5596,-0.0092,-0.0146,-1.7798,0.8789,-0.1173,9.7731,0.0024,-0.4272,-1.5564,0.1221,-0.1173,9.7731,0.0024,-0.4272,-1.5564,0.1221,9.8028,-0.1797,0.2632,-0.0036,-0.0165,-0.0014,0.6321,-0.3349,-0.6153,-0.3312,0.6778,0.3390,-0.5815,0.2955,9.6300,1.1000,0.9000,0.0000,0.0000,0.0000,0.7049,0.1974,-0.6606,0.1661,9.7400,0.6200,0.5000,0.0000,0.0000,0.0000,0.0880,-0.9746,-0.0201,-0.2048,3.9400,-1.6000,-8.8100,0.0000,0.0000,0.0000,0.7352,0.0760,-0.6644,0.1102,9.7000,-0.2500,0.9900,0.0000,0.0000,0.0000,0.5680,0.4421,-0.5291,0.4491,9.7400,0.3500,0.4400,0.0000,0.0000,0.0000,0.0786,0.9676,-0.0444,0.2356,4.5300,1.3100,-8.5700,0.0000,0.0000,0.0000
41524,0,0,1,0.0000,3.7793,5.4932,1.8457,3.5596,-0.0055,-0.0183,-1.7798,0.8789,-0.0838,9.8186,0.0072,-0.5798,-1.5869,0.0916,-0.0838,9.8186,0.0072,-0.5798,-1.5869,0.0916,9.8028,-0.1797,0.2632,-0.0036,-0.0165,-0.0014,0.6321,-0.3349,-0.6153,-0.3312,0.6778,0.3390,-0.5815,0.2955,9.6600,1.0900,0.9100,0.0000,0.0000,0.0000,0.7049,0.1973,-0.6606,0.1661,9.7300,0.6300,0.5200,0.0000,0.0000,0.0000,0.0880,-0.9746,-0.0201,-0.2048,3.9300,-1.6000,-8.8100,0.0000,0.0000,0.0000,0.7352,0.0760,-0.6644,0.1102,9.7000,-0.2300,0.9900,0.0000,0.0000,0.0000,0.5681,0.4421,-0.5291,0.4491,9.7000,0.3600,0.4300,0.0000,0.0000,0.0000,0.0786,0.9676,-0.0444,0.2356,4.5200,1.3200,-8.5800,0.0000,0.0000,0.0000
41525,0,0,1,0.0000,3.7793,5.4932,1.8457,3.5596,0.0018,0.0165,-1.7798,0.8789,-0.0742,9.7923,0.0335,-0.7935,-1.5564,0.0916,-0.0742,9.7923,0.0335,-0.7935,-1.5564,0.0916,9.8019,-0.1217,0.3025,0.0042,-0.0150,-0.0006,0.6321,-0.3349,-0.6153,-0.3312,0.6778,0.3390,-0.5815,0.2955,9.6600,1.0800,0.9100,0.0000,0.0000,0.0000,0.7049,0.1973,-0.6606,0.1661,9.7300,0.6300,0.5200,0.0000,0.0000,0.0000,0.0880,-0.9746,-0.0201,-0.2048,3.9400,-1.6000,-8.8100,0.0000,0.0000,0.0000,0.7352,0.0760,-0.6644,0.1101,9.7300,-0.2600,0.9600,0.0000,0.0000,0.0000,0.5681,0.4421,-0.5291,0.4491,9.7000,0.3600,0.4300,0.0000,0.0000,0.0000,0.0786,0.9676,-0.0444,0.2356,4.5400,1.3300,-8.5800,0.0000,0.0000,0.0000
41526,0,0,1,0.0000,3.7793,5.4932,1.8457,3.5596,0.0000,-0.0165,-1.7798,0.8789,-0.0455,9.8378,0.0144,-0.8545,-1.5869,0.2136,-0.0455,9.8378,0.0144,-0.8545,-1.5869,0.2136,9.8019,-0.1217,0.3025,0.0042,-0.0150,-0.0006,0.6321,-0.3349,-0.6153,-0.3312,0.6778,0.3390,-0.5815,0.2955,9.6300,1.1200,0.9200,0.0000,0.0000,0.0000,0.7049,0.1973,-0.6606,0.1662,9.7300,0.6300,0.5200,0.0000,0.0000,0.0000,0.0880,-0.9746,-0.0201,-0.2048,3.9400,-1.6000,-8.8100,0.0000,0.0000,0.0000,0.7352,0.0759,-0.6644,0.1101,9.7400,-0.2700,0.9700,0.0000,0.0000,0.0000,0.5681,0.4421,-0.5291,0.4491,9.7200,0.3800,0.4400,0.0000,0.0000,0.0000,0.0786,0.9676,-0.0444,0.2356,4.5200,1.3000,-8.5700,0.0000,0.0000,0.0000
41527,0,0,1,0.0000,3.7793,5.4932,1.8457,3.5596,0.0165,-0.0330,-1.7798,0.8789,-0.0670,9.7875,0.0168,-0.7935,-1.8311,-0.0610,-0.0670,9.7875,0.0168,-0.7935,-1.8311,-0.0610,9.8019,-0.1217,0.3025,0.0042,-0.0150,-0.0006,0.6321,-0.3349,-0.6153,-0.3312,0.6778,0.3389,-0.5815,0.2955,9.6600,1.1500,0.9200,0.0000,0.0000,0.0000,0.7049,0.1973,-0.6606,0.1662,9.7500,0.6000,0.5100,0.0000,0.0000,0.0000,0.0881,-0.9746,-0.0201,-0.2048,3.9400,-1.6000,-8.8200,0.0000,0.0000,0.0000,0.7352,0.0759,-0.6644,0.1100,9.7400,-0.2700,0.9800,0.0000,0.0000,0.0000,0.5681,0.4421,-0.5291,0.4491,9.7400,0.3700,0.4300,0.0000,0.0000,0.0000,0.0786,0.9676,-0.0444,0.2356,4.5100,1.3100,-8.5900,0.0000,0.0000,0.0000
41528,0,0,1,0.0000,3.7793,5.4932,1.8457,3.5596,-0.0092,0.0037,-1.7798,0.8789,-0.0575,9.7396,0.0239,-0.7629,-1.7090,0.0305,-0.0575,9.7396,0.0239,-0.7629,-1.7090,0.0305,9.7894,-0.1697,0.2755,-0.0059,-0.0289,-0.0011,0.6320,-0.3349,-0.6154,-0.3312,0.6778,0.3389,-0.5815,0.2955,9.6600,1.1500,0.9200,0.0000,0.0000,0.0000,0.7049,0.1973,-0.6606,0.1662,9.7400,0.6000,0.5200,0.0000,0.0000,0.0000,0.0881,-0.9746,-0.0202,-0.2048,3.9500,-1.5800,-8.8100,0.0000,0.0000,0.0000,0.7352,0.0759,-0.6644,0.1100,9.7300,-0.2500,0.9900,0.0000,0.0000,0.0000,0.5681,0.4422,-0.5291,0.4491,9.7800,0.3500,0.4300,0.0000,0.0000,0.0000,0.0786,0.9676,-0.0444,0.2356,4.5100,1.3100,-8.5900,0.0000,0.0000,0.0000
41529,0,0,1,0.0000,3.7793,5.4932,1.8457,3.5596,0.0183,-0.0275,-1.7798,0.8789,-0.0742,9.7540,0.0575,-0.6104,-1.4648,-0.0610,-0.0742,9.7540,0.0575,-0.6104,-1.4648,-0.0610,9.7894,-0.1697,0.2755,-0.0059,-0.0289,-0.0011,0.6320,-0.3349,-0.6154,-0.3312,0.6778,0.3389,-0.5815,0.2955,9.6600,1.1100,0.9300,0.0000,0.0000,0.0000,0.7049,0.1973,-0.6606,0.1662,9.7400,0.6000,0.5200,0.0000,0.0000,0.0000,0.0881,-0.9746,-0.0201,-0.2048,3.9300,-1.5900,-8.8100,0.0000,0.0000,0.0000,0.7352,0.0759,-0.6644,0.1100,9.7300,-0.2500,0.9900,0.0000,0.0000,0.0000,0.5681,0.4422,-0.5291,0.4491,9.7800,0.3500,0.4500,0.0000,0.0000,0.0000,0.0786,0.9676,-0.0444,0.2356,4.5300,1.3000,-8.5800,0.0000,0.0000,0.0000
41530,0,0,1,0.0000,3.7793,5.4932,1.8457,3.5596,0.0110,0.0165,-1.7798,0.8789,-0.0910,9.7731,0.0287,-0.5188,-1.4648,0.2136,-0.0910,9.7731,0.0287,-0.5188,-1.4648,0.2136,9.7679,-0.1205,0.3121,-0.0003,-0.0255,-0.0013,0.6320,-0.3349,-0.6154,-0.3312,0.6778,0.3389,-0.5815,0.2955,9.6600,1.1400,0.9400,0.0000,0.0000,0.0000,0.7049,0.1973,-0.6606,0.1662,9.7400,0.6000,0.5200,0.0000,0.0000,0.0000,0.0881,-0.9746,-0.0201,-0.2048,3.9400,-1.5800,-8.8100,0.0000,0.0000,0.0000,0.7352,0.0759,-0.6644,0.1099,9.7100,-0.2700,1.0000,0.0000,0.0000,0.0000,0.5681,0.4422,-0.5291,0.4491,9.7900,0.3000,0.4200,0.0000,0.0000,0.0000,0.0786,0.9676,-0.0444,0.2356,4.5100,1.3100,-8.5800,0.0000,0.0000,0.0000
41531,0,0,1,0.0000,3.7793,5.4932,1.8457,3.5596,0.0000,-0.0055,-1.7798,0.8789,-0.0527,9.8378,0.0670,-0.4883,-1.5564,-0.2441,-0.0527,9.8378,0.0670,-0.4883,-1.5564,-0.2441,9.7679,-0.1205,0.3121,-0.0003,-0.0255,-0.0013,0.6320,-0.3349,-0.6154,-0.3312,0.6778,0.3389,-0.5815,0.2955,9.6700,1.1300,0.9600,0.0000,0.0000,0.0000,0.7049,0.1972,-0.6607,0.1662,9.7500,0.5500,0.5000,0.0000,0.0000,0.0000,0.0881,-0.9746,-0.0201,-0.2048,3.9400,-1.5800,-8.8100,0.0000,0.0000,0.0000,0.7352,0.0759,-0.6644,0.1099,9.7200,-0.3300,0.9800,0.0000,0.0000,0.0000,0.5681,0.4422,-0.5291,0.4491,9.7900,0.3000,0.4200,0.0000,0.0000,0.0000,0.0786,0.9676,-0.0444,0.2356,4.5200,1.2800,-8.5800,0.0000,0.0000,0.0000
41532,0,0,1,0.0000,3.7793,5.4932,1.8457,3.5596,0.0073,-0.0073,-1.7578,0.8789,-0.0527,9.7923,0.0144,-0.6409,-1.3123,-0.0610,-0.0527,9.7923,0.0144,-0.6409,-1.3123,-0.0610,9.7679,-0.1205,0.3121,-0.0003,-0.0255,-0.0013,0.6320,-0.3349,-0.6154,-0.3312,0.6778,0.3389,-0.5815,0.2956,9.6800,1.1200,0.9400,0.0000,0.0000,0.0000,0.7049,0.1972,-0.6607,0.1662,9.7600,0.5500,0.4800,0.0000,0.0000,0.0000,0.0881,-0.9746,-0.0201,-0.2048,3.9400,-1.5800,-8.8100,0.0000,0.0000,0.0000,0.7352,0.0759,-0.6644,0.1099,9.7500,-0.3500,0.9500,0.0000,0.0000,0.0000,0.5681,0.4422,-0.5291,0.4491,9.7600,0.2900,0.3900,0.0000,0.0000,0.0000,0.0786,0.9676,-0.0444,0.2356,4.5200,1.2900,-8.5700,0.0000,0.0000,0.0000
41533,0,0,1,0.0000,3.7793,5.4932,1.8457,3.5596,0.0055,-0.0092,-1.7578,0.8789,-0.1532,9.7157,0.0335,-0.6714,-1.4038,-0.0305,-0.1532,9.7157,0.0335,-0.6714,-1.4038,-0.0305,9.7829,-0.1268,0.2047,0.0011,-0.0338,0.0016,0.6319,-0.3350,-0.6155,-0.3312,0.6778,0.3389,-0.5815,0.2956,9.6800,1.1200,0.9400,0.0000,0.0000,0.0000,0.7049,0.1972,-0.6607,0.1662,9.7500,0.5500,0.4600,0.0000,0.0000,0.0000,0.0881,-0.9746,-0.0201,-0.2048,3.9400,-1.5700,-8.8200,0.0000,0.0000,0.0000,0.7352,0.0759,-0.6644,0.1099,9.7500,-0.3500,0.9500,0.0000,0.0000,0.0000,0.5681,0.4422,-0.5291,0.4491,9.7600,0.2900,0.3900,0.0000,0.0000,0.0000,0.0786,0.9676,-0.0444,0.2356,4.5200,1.2900,-8.5700,0.0000,0.0000,0.0000
41534,0,0,1,0.0000,3.7793,5.4932,1.8457,3.5596,0.0165,-0.0165,-1.7578,0.8789,-0.0335,9.7252,0.0072,-0.4272,-1.4648,-0.1831,-0.0335,9.7252,0.0072,-0.4272,-1.4648,-0.1831,9.7829,-0.1268,0.2047,0.0011,-0.0338,0.0016,0.6319,-0.3350,-0.6155,-0.3312,0.6778,0.3389,-0.5815,0.2956,9.6800,1.0800,0.9600,0.0000,0.0000,0.0000,0.7049,0.1972,-0.6606,0.1663,9.7400,0.5800,0.4600,0.0000,0.0000,0.0000,0.0881,-0.9746,-0.0201,-0.2048,3.9300,-1.5800,-8.8100,0.0000,0.0000,0.0000,0.7352,0.0759,-0.6644,0.1099,9.7500,-0.3500,0.9500,0.0000,0.0000,0.0000,0.5681,0.4422,-0.5290,0.4491,9.8200,0.2300,0.4200,0.0000,0.0000,0.0000,0.0786,0.9676,-0.0444,0.2356,4.5300,1.2900,-8.5800,0.0000,0.0000,0.0000
41535,0,0,1,0.0000,3.7793,5.4932,1.8457,3.5596,0.0055,-0.0183,-1.7578,0.8789,-0.0934,9.7492,0.0455,-0.4578,-1.4343,-0.2441,-0.0934,9.7492,0.0455,-0.4578,-1.4343,-0.2441,9.7046,-0.1864,0.1890,-0.0008,-0.0308,0.0023,0.6319,-0.3350,-0.6155,-0.3311,0.6778,0.3389,-0.5815,0.2955,9.6500,1.1100,0.9600,0.0000,0.0000,0.0000,0.7049,0.1972,-0.6606,0.1663,9.7400,0.5800,0.4600,0.0000,0.0000,0.0000,0.0881,-0.9746,-0.0201,-0.2048,3.9200,-1.5700,-8.8100,0.0000,0.0000,0.0000,0.7352,0.0759,-0.6644,0.1098,9.7800,-0.3100,1.0000,0.0000,0.0000,0.0000,0.5681,0.4422,-0.5290,0.4491,9.8000,0.2300,0.4300,0.0000,0.0000,0.0000,0.0786,0.9676,-0.0444,0.2356,4.5100,1.3000,-8.5700,0.0000,0.0000,0.0000
41536,0,0,1,0.0000,3.7793,5.4932,1.8457,3.5596,0.0165,-0.0073,-1.7578,0.8789,-0.0479,9.7348,0.0503,-0.5188,-1.3428,-0.2441,-0.0479,9.7348,0.0503,-0.5188,-1.3428,-0.2441,9.7046,-0.1864,0.1890,-0.0008,-0.0308,0.0023,0.6319,-0.3350,-0.6155,-0.3311,0.6778,0.3389,-0.5815,0.2955,9.6600,1.1700,0.9400,0.0000,0.0000,0.0000,0.7049,0.1971,-0.6606,0.1663,9.7500,0.5600,0.4600,0.0000,0.0000,0.0000,0.0881,-0.9746,-0.0201,-0.2048,3.9200,-1.5700,-8.8100,0.0000,0.0000,0.0000,0.7352,0.0759,-0.6644,0.1098,9.7500,-0.2900,1.0200,0.0000,0.0000,0.0000,0.5681,0.4422,-0.5290,0.4491,9.8000,0.2300,0.4300,0.0000,0.0000,0.0000,0.0786,0.9676,-0.0444,0.2356,4.5400,1.2800,-8.5900,0.0000,0.0000,0.0000
41537,0,0,1,0.0000,3.7793,5.4932,1.8457,3.5596,-0.0073,0.0037,-1.7578,0.8789,-0.0503,9.7636,0.0766,-0.3052,-1.3428,0.0916,-0.0503,9.7636,0.0766,-0.3052,-1.3428,0.0916,9.7046,-0.1864,0.1890,-0.0008,-0.0308,0.0023,0.6319,-0.3350,-0.6155,-0.3311,0.6778,0.3389,-0.5815,0.2955,9.6900,1.1200,0.9400,0.0000,0.0000,0.0000,0.7049,0.1971,-0.6606,0.1663,9.7500,0.5500,0.4500,0.0000,0.0000,0.0000,0.0881,-0.9746,-0.0201,-0.2048,3.9200,-1.5700,-8.8100,0.0000,0.0000,0.0000,0.7352,0.0759,-0.6644,0.1097,9.7300,-0.3400,1.0100,0.0000,0.0000,0.0000,0.5681,0.4423,-0.5290,0.4490,9.8100,0.2400,0.4400,0.0000,0.0000,0.0000,0.0786,0.9676,-0.0444,0.2356,4.5100,1.2800,-8.5700,0.0000,0.0000,0.0000
41538,0,0,1,0.0000,3.8013,5.5151,1.8457,3.5596,0.0055,-0.0366,-1.7578,0.8789,-0.0694,9.7875,-0.0120,-0.3967,-1.6785,-0.1221,-0.0694,9.7875,-0.0120,-0.3967,-1.6785,-0.1221,9.7123,-0.1765,0.0789,-0.0102,-0.0347,-0.0001,0.6318,-0.3351,-0.6156,-0.3311,0.6778,0.3389,-0.5815,0.2955,9.6900,1.1200,0.9400,0.0000,0.0000,0.0000,0.7049,0.1971,-0.6606,0.1663,9.7500,0.5700,0.4700,0.0000,0.0000,0.0000,0.0881,-0.9746,-0.0201,-0.2048,3.9400,-1.5600,-8.8200,0.0000,0.0000,0.0000,0.7352,0.0759,-0.6644,0.1097,9.7300,-0.3400,1.0100,0.0000,0.0000,0.0000,0.5681,0.4423,-0.5290,0.4490,9.7900,0.2300,0.3800,0.0000,0.0000,0.0000,0.0786,0.9676,-0.0444,0.2356,4.5100,1.2800,-8.5700,0.0000,0.0000,0.0000
41539,0,0,1,0.0000,3.8013,5.5151,1.8457,3.5596,0.0146,-0.0128,-1.7578,0.8789,-0.1101,9.7588,0.0622,-0.1831,-1.4038,-0.3662,-0.1101,9.7588,0.0622,-0.1831,-1.4038,-0.3662,9.7123,-0.1765,0.0789,-0.0102,-0.0347,-0.0001,0.6318,-0.3351,-0.6156,-0.3311,0.6778,0.3389,-0.5816,0.2955,9.6800,1.0800,0.9600,0.0000,0.0000,0.0000,0.7049,0.1971,-0.6606,0.1663,9.7700,0.5700,0.4800,0.0000,0.0000,0.0000,0.0881,-0.9746,-0.0201,-0.2048,3.9200,-1.5600,-8.8200,0.0000,0.0000,0.0000,0.7352,0.0759,-0.6644,0.1097,9.7600,-0.3400,0.9900,0.0000,0.0000,0.0000,0.5681,0.4423,-0.5290,0.4490,9.7700,0.2200,0.3700,0.0000,0.0000,0.0000,0.0786,0.9676,-0.0444,0.2356,4.5200,1.2900,-8.5700,0.0000,0.0000,0.0000
41540,0,0,1,0.0000,3.8013,5.5151,1.8457,3.5596,-0.0128,-0.0275,-1.7578,0.8789,-0.0144,9.7444,0.0503,-0.2747,-1.4954,-0.1526,-0.0144,9.7444,0.0503,-0.2747,-1.4954,-0.1526,9.6933,-0.1664,0.0043,-0.0025,-0.0375,0.0018,0.6317,-0.3351,-0.6156,-0.3311,0.6778,0.3389,-0.5816,0.2955,9.6700,1.0800,0.9600,0.0000,0.0000,0.0000,0.7049,0.1970,-0.6606,0.1663,9.7600,0.5700,0.4600,0.0000,0.0000,0.0000,0.0881,-0.9746,-0.0201,-0.2048,3.9100,-1.5700,-8.8100,0.0000,0.0000,0.0000,0.7352,0.0759,-0.6644,0.1097,9.7200,-0.3300,0.9900,0.0000,0.0000,0.0000,0.5681,0.4423,-0.5290,0.4490,9.7700,0.2200,0.3700,0.0000,0.0000,0.0000,0.0786,0.9676,-0.0444,0.2356,4.5400,1.3000,-8.5800,0.0000,0.0000,0.0000
41541,0,0,1,0.0000,3.8013,5.5151,1.8457,3.5596,0.0128,-0.0110,-1.7578,0.8789,-0.0287,9.7731,0.0168,-0.2441,-1.4648,-0.1221,-0.0287,9.7731,0.0168,-0.2441,-1.4648,-0.1221,9.6933,-0.1664,0.0043,-0.0025,-0.0375,0.0018,0.6317,-0.3351,-0.6156,-0.3311,0.6778,0.3389,-0.5816,0.2955,9.6700,1.1000,0.9600,0.0000,0.0000,0.0000,0.7049,0.1970,-0.6606,0.1663,9.7600,0.5700,0.4600,0.0000,0.0000,0.0000,0.0881,-0.9746,-0.0201,-0.2048,3.9200,-1.5700,-8.8000,0.0000,0.0000,0.0000,0.7352,0.0759,-0.6644,0.1097,9.7100,-0.3300,1.0000,0.0000,0.0000,0.0000,0.5681,0.4423,-0.5290,0.4490,9.7700,0.2100,0.3900,0.0000,0.0000,0.0000,0.0786,0.9676,-0.0444,0.2356,4.5300,1.3000,-8.5900,0.0000,0.0000,0.0000
41542,0,0,1,0.0000,3.8013,5.5151,1.8457,3.5596,-0.0073,-0.0220,-1.7578,0.9009,0.0000,9.7636,0.0694,-0.4272,-1.6785,-0.1526,0.0000,9.7636,0.0694,-0.4272,-1.6785,-0.1526,9.6933,-0.1664,0.0043,-0.0025,-0.0375,0.0018,0.6317,-0.3351,-0.6156,-0.3311,0.6778,0.3388,-0.5816,0.2955,9.7000,1.1100,0.9600,0.0000,0.0000,0.0000,0.7049,0.1970,-0.6606,0.1664,9.7600,0.5600,0.4400,0.0000,0.0000,0.0000,0.0881,-0.9746,-0.0201,-0.2048,3.9200,-1.5700,-8.8000,0.0000,0.0000,0.0000,0.7352,0.0759,-0.6645,0.1097,9.7300,-0.3500,0.9900,0.0000,0.0000,0.0000,0.5681,0.4423,-0.5290,0.4490,9.7900,0.2100,0.4400,0.0000,0.0000,0.0000,0.0786,0.9676,-0.0444,0.2356,4.5300,1.3000,-8.5800,0.0000,0.0000,0.0000
41543,0,0,1,0.0000,3.8013,5.5151,1.8457,3.5596,0.0183,-0.0183,-1.7578,0.9009,-0.0551,9.7444,0.0455,-0.5188,-1.5564,-0.0305,-0.0551,9.7444,0.0455,-0.5188,-1.5564,-0.0305,9.7025,-0.1433,-0.0290,-0.0062,-0.0304,-0.0013,0.6317,-0.3351,-0.6157,-0.3311,0.6778,0.3388,-0.5816,0.2955,9.7000,1.1100,0.9600,0.0000,0.0000,0.0000,0.7049,0.1970,-0.6606,0.1664,9.7600,0.5500,0.4300,0.0000,0.0000,0.0000,0.0881,-0.9746,-0.0201,-0.2048,3.9300,-1.5700,-8.8100,0.0000,0.0000,0.0000,0.7352,0.0759,-0.6645,0.1097,9.7300,-0.3500,0.9900,0.0000,0.0000,0.0000,0.5681,0.4423,-0.5290,0.4490,9.7800,0.2200,0.4200,0.0000,0.0000,0.0000,0.0786,0.9676,-0.0444,0.2356,4.5300,1.3000,-8.5800,0.0000,0.0000,0.0000
41544,0,0,1,0.0000,3.8013,5.5151,1.8457,3.5596,0.0000,0.0092,-1.7578,0.9009,-0.0096,9.7971,0.0694,-0.4272,-1.6174,-0.0916,-0.0096,9.7971,0.0694,-0.4272,-1.6174,-0.0916,9.7025,-0.1433,-0.0290,-0.0062,-0.0304,-0.0013,0.6317,-0.3351,-0.6157,-0.3311,0.6778,0.3388,-0.5816,0.2955,9.7000,1.0500,0.9600,0.0000,0.0000,0.0000,0.7049,0.1970,-0.6606,0.1664,9.7900,0.5500,0.4200,0.0000,0.0000,0.0000,0.0881,-0.9746,-0.0201,-0.2048,3.9300,-1.5600,-8.8300,0.0000,0.0000,0.0000,0.7352,0.0759,-0.6645,0.1096,9.7300,-0.3600,0.9900,0.0000,0.0000,0.0000,0.5681,0.4423,-0.5290,0.4490,9.7900,0.2000,0.4200,0.0000,0.0000,0.0000,0.0786,0.9676,-0.0444,0.2356,4.5400,1.3000,-8.5800,0.0000,0.0000,0.0000
41545,0,0,1,0.0000,3.8013,5.5151,1.8457,3.5596,-0.0055,-0.0220,-1.7578,0.9009,-0.0215,9.7205,0.0886,-0.2136,-1.7700,-0.1526,-0.0215,9.7205,0.0886,-0.2136,-1.7700,-0.1526,9.6721,-0.1199,-0.0171,-0.0055,-0.0221,0.0015,0.6316,-0.3352,-0.6157,-0.3311,0.6778,0.3388,-0.5816,0.2955,9.6800,1.0200,0.9700,0.0000,0.0000,0.0000,0.7049,0.1970,-0.6606,0.1664,9.7900,0.5500,0.4200,0.0000,0.0000,0.0000,0.0881,-0.9746,-0.0201,-0.2048,3.9300,-1.5500,-8.8200,0.0000,0.0000,0.0000,0.7352,0.0759,-0.6645,0.1096,9.7400,-0.3600,0.9700,0.0000,0.0000,0.0000,0.5681,0.4423,-0.5290,0.4490,9.7900,0.2000,0.4200,0.0000,0.0000,0.0000,0.0786,0.9676,-0.0444,0.2356,4.5300,1.3100,-8.5900,0.0000,0.0000,0.0000
41546,0,0,1,0.0000,3.8013,5.5151,1.8457,3.5596,-0.0055,0.0146,-1.7578,0.9009,-0.0096,9.7971,0.0694,-0.3662,-1.6174,-0.2136,-0.0096,9.7971,0.0694,-0.3662,-1.6174,-0.2136,9.6721,-0.1199,-0.0171,-0.0055,-0.0221,0.0015,0.6316,-0.3352,-0.6157,-0.3311,0.6778,0.3388,-0.5816,0.2955,9.6900,1.0600,0.9800,0.0000,0.0000,0.0000,0.7049,0.1970,-0.6606,0.1664,9.7800,0.5300,0.4100,0.0000,0.0000,0.0000,0.0881,-0.9746,-0.0201,-0.2048,3.9300,-1.5500,-8.8100,0.0000,0.0000,0.0000,0.7352,0.0759,-0.6645,0.1096,9.7100,-0.3600,1.0000,0.0000,0.0000,0.0000,0.5681,0.4424,-0.5290,0.4490,9.7700,0.2100,0.4100,0.0000,0.0000,0.0000,0.0786,0.9676,-0.0444,0.2356,4.5300,1.3100,-8.5800,0.0000,0.0000,0.0000
41547,0,0,1,0.0000,3.8013,5.5151,1.8457,3.5596,0.0110,-0.0018,-1.7578,0.9009,-0.0311,9.7779,0.0862,-0.2441,-1.5564,-0.1526,-0.0311,9.7779,0.0862,-0.2441,-1.5564,-0.1526,9.6721,-0.1199,-0.0171,-0.0055,-0.0221,0.0015,0.6316,-0.3352,-0.6157,-0.3311,0.6778,0.3388,-0.5816,0.2955,9.7300,1.0200,0.9800,0.0000,0.0000,0.0000,0.7049,0.1969,-0.6606,0.1664,9.7900,0.5400,0.4300,0.0000,0.0000,0.0000,0.0881,-0.9746,-0.0201,-0.2048,3.9300,-1.5500,-8.8100,0.0000,0.0000,0.0000,0.7352,0.0759,-0.6645,0.1096,9.7300,-0.3500,0.9700,0.0000,0.0000,0.0000,0.5681,0.4424,-0.5289,0.4490,9.7800,0.2000,0.4200,0.0000,0.0000,0.0000,0.0786,0.9676,-0.0444,0.2356,4.5200,1.2900,-8.5600,0.0000,0.0000,0.0000
41548,0,0,1,0.0000,3.7793,5.5151,1.8237,3.5596,-0.0110,-0.0110,-1.7578,0.9009,-0.0072,9.8090,0.0622,-0.2136,-1.5259,0.0000,-0.0072,9.8090,0.0622,-0.2136,-1.5259,0.0000,9.6932,-0.1179,-0.0295,-0.0068,-0.0198,-0.0001,0.6316,-0.3352,-0.6157,-0.3311,0.6778,0.3388,-0.5816,0.2955,9.7300,1.0200,0.9800,0.0000,0.0000,0.0000,0.7049,0.1969,-0.6606,0.1665,9.7900,0.5100,0.4100,0.0000,0.0000,0.0000,0.0881,-0.9746,-0.0201,-0.2048,3.9200,-1.5400,-8.8100,0.0000,0.0000,0.0000,0.7352,0.0759,-0.6645,0.1096,9.7300,-0.3500,0.9700,0.0000,0.0000,0.0000,0.5681,0.4424,-0.5289,0.4490,9.7800,0.2100,0.4500,0.0000,0.0000,0.0000,0.0786,0.9676,-0.0444,0.2356,4.5200,1.2900,-8.5600,0.0000,0.0000,0.0000
41549,0,0,1,0.0000,3.8013,5.5151,1.8457,3.5596,0.0055,0.0110,-1.7578,0.9009,-0.0335,9.7300,0.0431,-0.3052,-1.7700,-0.2441,-0.0335,9.7300,0.0431,-0.3052,-1.7700,-0.2441,9.6932,-0.1179,-0.0295,-0.0068,-0.0198,-0.0001,0.6316,-0.3352,-0.6157,-0.3311,0.6778,0.3388,-0.5816,0.2955,9.6900,1.0200,0.9800,0.0000,0.0000,0.0000,0.7049,0.1969,-0.6606,0.1665,9.7900,0.5100,0.4100,0.0000,0.0000,0.0000,0.0881,-0.9746,-0.0201,-0.2048,3.9200,-1.5600,-8.8200,0.0000,0.0000,0.0000,0.7352,0.0759,-0.6645,0.1096,9.7600,-0.3600,0.9900,0.0000,0.0000,0.0000,0.5681,0.4424,-0.5289,0.4490,9.7900,0.2000,0.4300,0.0000,0.0000,0.0000,0.0786,0.9676,-0.0444,0.2356,4.5400,1.2800,-8.5700,0.0000,0.0000,0.0000
41550,0,0,1,0.0000,3.7793,5.5151,1.8237,3.5596,-0.0037,-0.0073,-1.7578,0.9009,0.0239,9.8090,0.0096,-0.3662,-1.8921,-0.0305,0.0239,9.8090,0.0096,-0.3662,-1.8921,-0.0305,9.7007,-0.1228,0.0397,-0.0084,-0.0214,0.0012,0.6316,-0.3352,-0.6157,-0.3311,0.6778,0.3388,-0.5816,0.2955,9.7100,1.0600,0.9500,0.0000,0.0000,0.0000,0.7049,0.1969,-0.6606,0.1665,9.7900,0.5100,0.4100,0.0000,0.0000,0.0000,0.0881,-0.9746,-0.0201,-0.2048,3.9300,-1.5700,-8.8200,0.0000,0.0000,0.0000,0.7352,0.0760,-0.6645,0.1096,9.7100,-0.3500,1.0100,0.0000,0.0000,0.0000,0.5681,0.4424,-0.5289,0.4490,9.7800,0.2300,0.4500,0.0000,0.0000,0.0000,0.0786,0.9676,-0.0444,0.2356,4.5400,1.3000,-8.5800,0.0000,0.0000,0.0000
41551,0,0,1,0.0000,3.7793,5.5151,1.8237,3.5596,-0.0110,0.0092,-1.7578,0.9009,-0.0096,9.7731,0.0838,-0.0916,-1.6479,0.0000,-0.0096,9.7731,0.0838,-0.0916,-1.6479,0.0000,9.7007,-0.1228,0.0397,-0.0084,-0.0214,0.0012,0.6316,-0.3352,-0.6157,-0.3311,0.6778,0.3388,-0.5816,0.2955,9.7000,1.0200,0.9500,0.0000,0.0000,0.0000,0.7049,0.1969,-0.6606,0.1665,9.7800,0.5300,0.3900,0.0000,0.0000,0.0000,0.0881,-0.9746,-0.0201,-0.2048,3.9300,-1.5700,-8.8200,0.0000,0.0000,0.0000,0.7352,0.0760,-0.6645,0.1096,9.7200,-0.3700,1.0000,0.0000,0.0000,0.0000,0.5681,0.4424,-0.5289,0.4490,9.7800,0.2300,0.4500,0.0000,0.0000,0.0000,0.0786,0.9676,-0.0444,0.2356,4.5200,1.2900,-8.5600,0.0000,0.0000,0.0000
41552,0,0,1,0.0000,3.7793,5.5151,1.8237,3.5596,0.0146,0.0000,-1.7578,0.9009,0.0431,9.8354,0.0503,-0.2136,-1.7700,0.0305,0.0431,9.8354,0.0503,-0.2136,-1.7700,0.0305,9.7007,-0.1228,0.0397,-0.0084,-0.0214,0.0012,0.6316,-0.3352,-0.6157,-0.3311,0.6778,0.3388,-0.5817,0.2955,9.7100,1.0200,0.9400,0.0000,0.0000,0.0000,0.7049,0.1969,-0.6606,0.1665,9.7700,0.5300,0.4100,0.0000,0.0000,0.0000,0.0881,-0.9746,-0.0201,-0.2048,3.9200,-1.5800,-8.8100,0.0000,0.0000,0.0000,0.7352,0.0760,-0.6645,0.1096,9.7200,-0.3700,1.0000,0.0000,0.0000,0.0000,0.5681,0.4424,-0.5289,0.4490,9.7500,0.2000,0.4700,0.0000,0.0000,0.0000,0.0786,0.9676,-0.0444,0.2356,4.5200,1.2900,-8.5800,0.0000,0.0000,0.0000
41553,0,0,1,0.0000,3.7793,5.5151,1.8237,3.5596,-0.0201,0.0146,-1.7358,0.9009,0.0455,9.8019,0.1173,-0.1221,-1.6785,0.0000,0.0455,9.8019,0.1173,-0.1221,-1.6785,0.0000,9.7356,-0.1015,0.0984,-0.0044,-0.0129,-0.0009,0.6315,-0.3352,-0.6158,-0.3311,0.6778,0.3388,-0.5817,0.2955,9.7100,1.0200,0.9400,0.0000,0.0000,0.0000,0.7050,0.1968,-0.6606,0.1665,9.7600,0.5400,0.4900,0.0000,0.0000,0.0000,0.0881,-0.9746,-0.0201,-0.2048,3.9300,-1.5900,-8.8200,0.0000,0.0000,0.0000,0.7352,0.0760,-0.6645,0.1096,9.7500,-0.4000,0.9900,0.0000,0.0000,0.0000,0.5682,0.4424,-0.5289,0.4489,9.7700,0.2100,0.4700,0.0000,0.0000,0.0000,0.0786,0.9676,-0.0444,0.2356,4.5200,1.2900,-8.5800,0.0000,0.0000,0.0000
41554,0,0,1,0.0000,3.7793,5.5151,1.8237,3.5596,0.0055,-0.0110,-1.7358,0.9009,0.0000,9.7588,0.0766,-0.1831,-1.3428,-0.0916,0.0000,9.7588,0.0766,-0.1831,-1.3428,-0.0916,9.7356,-0.1015,0.0984,-0.0044,-0.0129,-0.0009,0.6315,-0.3352,-0.6158,-0.3311,0.6778,0.3388,-0.5817,0.2955,9.7600,1.0200,0.9400,0.0000,0.0000,0.0000,0.7050,0.1968,-0.6606,0.1665,9.7800,0.5400,0.5000,0.0000,0.0000,0.0000,0.0881,-0.9746,-0.0201,-0.2048,3.9300,-1.5900,-8.8100,0.0000,0.0000,0.0000,0.7352,0.0760,-0.6645,0.1096,9.7200,-0.4000,0.9800,0.0000,0.0000,0.0000,0.5682,0.4424,-0.5289,0.4489,9.7900,0.2100,0.4700,0.0000,0.0000,0.0000,0.0786,0.9676,-0.0444,0.2356,4.5300,1.3100,-8.5700,0.0000,0.0000,0.0000
41555,0,0,1,0.0000,3.7793,5.5151,1.8237,3.5596,-0.0055,0.0146,-1.7358,0.9009,-0.0144,9.7971,0.0335,-0.1831,-1.7090,-0.0610,-0.0144,9.7971,0.0335,-0.1831,-1.7090,-0.0610,9.7513,-0.1525,0.1145,-0.0009,-0.0137,0.0004,0.6315,-0.3353,-0.6158,-0.3311,0.6777,0.3389,-0.5817,0.2955,9.6900,0.9900,0.9400,0.0000,0.0000,0.0000,0.7050,0.1968,-0.6606,0.1665,9.7800,0.5400,0.5000,0.0000,0.0000,0.0000,0.0881,-0.9746,-0.0201,-0.2048,3.9300,-1.5900,-8.8200,0.0000,0.0000,0.0000,0.7352,0.0760,-0.6645,0.1096,9.7500,-0.3800,0.9800,0.0000,0.0000,0.0000,0.5682,0.4424,-0.5289,0.4489,9.7800,0.2300,0.4700,0.0000,0.0000,0.0000,0.0786,0.9676,-0.0444,0.2356,4.5300,1.3100,-8.5800,0.0000,0.0000,0.0000
41556,0,0,1,0.0000,3.8013,5.5371,1.8237,3.5596,-0.0092,-0.0110,-1.7358,0.9009,-0.0431,9.7683,0.0599,-0.0610,-2.0447,-0.2747,-0.0431,9.7683,0.0599,-0.0610,-2.0447,-0.2747,9.7513,-0.1525,0.1145,-0.0009,-0.0137,0.0004,0.6315,-0.3353,-0.6158,-0.3311,0.6777,0.3389,-0.5817,0.2955,9.7100,1.0100,0.9300,0.0000,0.0000,0.0000,0.7050,0.1968,-0.6606,0.1665,9.7700,0.5700,0.4900,0.0000,0.0000,0.0000,0.0881,-0.9746,-0.0201,-0.2048,3.9300,-1.5900,-8.8200,0.0000,0.0000,0.0000,0.7352,0.0760,-0.6645,0.1095,9.7200,-0.3600,1.0000,0.0000,0.0000,0.0000,0.5682,0.4424,-0.5289,0.4489,9.7800,0.2300,0.4700,0.0000,0.0000,0.0000,0.0786,0.9676,-0.0444,0.2356,4.5400,1.3000,-8.5700,0.0000,0.0000,0.0000
41557,0,0,1,0.0000,3.8013,5.5371,1.8237,3.5596,0.0183,-0.0073,-1.7358,0.9009,0.0527,9.7827,0.1365,-0.3357,-1.8616,0.1221,0.0527,9.7827,0.1365,-0.3357,-1.8616,0.1221,9.7513,-0.1525,0.1145,-0.0009,-0.0137,0.0004,0.6315,-0.3353,-0.6158,-0.3311,0.6777,0.3389,-0.5817,0.2955,9.7000,1.0100,0.9300,0.0000,0.0000,0.0000,0.7050,0.1967,-0.6606,0.1665,9.7600,0.5600,0.4800,0.0000,0.0000,0.0000,0.0881,-0.9746,-0.0201,-0.2048,3.9500,-1.5700,-8.8200,0.0000,0.0000,0.0000,0.7352,0.0760,-0.6645,0.1095,9.7200,-0.3500,0.9900,0.0000,0.0000,0.0000,0.5682,0.4425,-0.5289,0.4489,9.7700,0.2100,0.4600,0.0000,0.0000,0.0000,0.0786,0.9676,-0.0444,0.2356,4.5300,1.3100,-8.5600,0.0000,0.0000,0.0000
41558,0,0,1,0.0000,3.8013,5.5371,1.8237,3.5596,0.0073,0.0165,-1.7358,0.9009,0.0862,9.8761,0.0622,-0.2747,-1.7700,0.1831,0.0862,9.8761,0.0622,-0.2747,-1.7700,0.1831,9.7696,-0.1320,0.2061,-0.0036,-0.0167,-0.0016,0.6315,-0.3353,-0.6158,-0.3311,0.6777,0.3389,-0.5817,0.2955,9.7000,1.0100,0.9300,0.0000,0.0000,0.0000,0.7050,0.1967,-0.6606,0.1665,9.8000,0.5700,0.5000,0.0000,0.0000,0.0000,0.0881,-0.9746,-0.0201,-0.2048,3.9400,-1.5800,-8.8200,0.0000,0.0000,0.0000,0.7352,0.0760,-0.6645,0.1095,9.7400,-0.3600,0.9800,0.0000,0.0000,0.0000,0.5682,0.4425,-0.5288,0.4489,9.7600,0.2400,0.4600,0.0000,0.0000,0.0000,0.0786,0.9676,-0.0444,0.2356,4.5300,1.3100,-8.5600,0.0000,0.0000,0.0000
41559,0,0,1,0.0000,3.8013,5.5371,1.8237,3.5596,-0.0128,-0.0183,-1.7358,0.9009,0.0335,9.8569,0.0790,-0.3052,-1.8921,0.0000,0.0335,9.8569,0.0790,-0.3052,-1.8921,0.0000,9.7696,-0.1320,0.2061,-0.0036,-0.0167,-0.0016,0.6315,-0.3353,-0.6158,-0.3311,0.6777,0.3389,-0.5817,0.2955,9.6500,1.0500,0.9100,0.0000,0.0000,0.0000,0.7050,0.1967,-0.6606,0.1665,9.7800,0.5900,0.5400,0.0000,0.0000,0.0000,0.0881,-0.9746,-0.0201,-0.2048,3.9100,-1.5900,-8.8100,0.0000,0.0000,0.0000,0.7352,0.0760,-0.6645,0.1095,9.7400,-0.3600,0.9800,0.0000,0.0000,0.0000,0.5682,0.4425,-0.5288,0.4489,9.7700,0.2200,0.4600,0.0000,0.0000,0.0000,0.0786,0.9676,-0.0444,0.2356,4.5500,1.3100,-8.5700,0.0000,0.0000,0.0000
41560,0,0,1,0.0000,3.8013,5.5371,1.8237,3.5596,0.0018,0.0037,-1.7358,0.9009,-0.0479,9.7971,0.0694,-0.2747,-1.8005,0.1831,-0.0479,9.7971,0.0694,-0.2747,-1.8005,0.1831,9.7975,-0.0976,0.1649,0.0019,-0.0179,-0.0028,0.6314,-0.3353,-0.6158,-0.3311,0.6777,0.3389,-0.5817,0.2955,9.7300,1.0400,0.9000,0.0000,0.0000,0.0000,0.7050,0.1967,-0.6606,0.1665,9.7800,0.5900,0.5400,0.0000,0.0000,0.0000,0.0881,-0.9746,-0.0201,-0.2048,3.9500,-1.5700,-8.8300,0.0000,0.0000,0.0000,0.7352,0.0760,-0.6645,0.1095,9.7400,-0.3600,0.9900,0.0000,0.0000,0.0000,0.5682,0.4425,-0.5288,0.4489,9.7700,0.2200,0.4600,0.0000,0.0000,0.0000,0.0786,0.9676,-0.0444,0.2356,4.5400,1.3000,-8.5800,0.0000,0.0000,0.0000
41561,0,0,1,0.0000,3.8013,5.5371,1.8237,3.5596,0.0165,0.0055,-1.7358,0.9009,0.0335,9.8402,0.0479,-0.2441,-1.7395,0.0916,0.0335,9.8402,0.0479,-0.2441,-1.7395,0.0916,9.7975,-0.0976,0.1649,0.0019,-0.0179,-0.0028,0.6314,-0.3353,-0.6158,-0.3311,0.6777,0.3389,-0.5817,0.2955,9.6700,1.0300,0.9200,0.0000,0.0000,0.0000,0.7050,0.1966,-0.6606,0.1666,9.8000,0.5700,0.5300,0.0000,0.0000,0.0000,0.0881,-0.9746,-0.0201,-0.2048,3.9500,-1.5700,-8.8300,0.0000,0.0000,0.0000,0.7352,0.0760,-0.6645,0.1095,9.7600,-0.3700,0.9900,0.0000,0.0000,0.0000,0.5682,0.4425,-0.5288,0.4489,9.7700,0.2200,0.4800,0.0000,0.0000,0.0000,0.0786,0.9676,-0.0444,0.2356,4.5300,1.3100,-8.5900,0.0000,0.0000,0.0000
41562,0,0,1,0.0000,3.8013,5.5371,1.8237,3.5596,0.0165,-0.0073,-1.7358,0.9009,-0.0144,9.7827,0.0622,-0.1831,-1.6174,0.3357,-0.0144,9.7827,0.0622,-0.1831,-1.6174,0.3357,9.7975,-0.0976,0.1649,0.0019,-0.0179,-0.0028,0.6314,-0.3353,-0.6158,-0.3311,0.6777,0.3389,-0.5817,0.2955,9.6900,1.0600,0.9100,0.0000,0.0000,0.0000,0.7050,0.1966,-0.6606,0.1666,9.7900,0.5700,0.5300,0.0000,0.0000,0.0000,0.0881,-0.9746,-0.0201,-0.2048,3.9100,-1.5900,-8.8100,0.0000,0.0000,0.0000,0.7352,0.0760,-0.6645,0.1095,9.7200,-0.3400,0.9900,0.0000,0.0000,0.0000,0.5682,0.4425,-0.5288,0.4489,9.7600,0.2200,0.4800,0.0000,0.0000,0.0000,0.0786,0.9676,-0.0444,0.2356,4.5300,1.3000,-8.5800,0.0000,0.0000,0.0000
41563,0,0,1,0.0000,3.8013,5.5371,1.8237,3.5596,0.0037,0.0128,-1.7358,0.9009,0.1101,9.8162,0.0431,-0.3662,-1.7700,0.0916,0.1101,9.8162,0.0431,-0.3662,-1.7700,0.0916,9.8193,-0.1192,0.2584,-0.0018,-0.0144,-0.0003,0.6314,-0.3353,-0.6158,-0.3311,0.6777,0.3389,-0.5817,0.2955,9.6900,1.0600,0.9100,0.0000,0.0000,0.0000,0.7050,0.1966,-0.6606,0.1666,9.7700,0.5700,0.5300,0.0000,0.0000,0.0000,0.0881,-0.9746,-0.0201,-0.2048,3.9400,-1.5900,-8.8100,0.0000,0.0000,0.0000,0.7352,0.0760,-0.6645,0.1095,9.7200,-0.3400,0.9900,0.0000,0.0000,0.0000,0.5682,0.4425,-0.5288,0.4488,9.7500,0.2400,0.4700,0.0000,0.0000,0.0000,0.0786,0.9676,-0.0444,0.2356,4.5300,1.3000,-8.5800,0.0000,0.0000,0.0000
41564,0,0,1,0.0000,3.8232,5.5371,1.8457,3.5596,0.0128,-0.0092,-1.7358,0.9009,-0.0072,9.8210,0.0934,-0.1221,-1.8311,0.3662,-0.0072,9.8210,0.0934,-0.1221,-1.8311,0.3662,9.8193,-0.1192,0.2584,-0.0018,-0.0144,-0.0003,0.6314,-0.3353,-0.6158,-0.3311,0.6777,0.3389,-0.5817,0.2955,9.6900,1.0500,0.9100,0.0000,0.0000,0.0000,0.7050,0.1966,-0.6606,0.1666,9.7400,0.6100,0.5400,0.0000,0.0000,0.0000,0.0881,-0.9746,-0.0201,-0.2048,3.9400,-1.5900,-8.8100,0.0000,0.0000,0.0000,0.7352,0.0760,-0.6645,0.1095,9.7200,-0.3800,0.9900,0.0000,0.0000,0.0000,0.5682,0.4425,-0.5288,0.4488,9.7800,0.2500,0.4700,0.0000,0.0000,0.0000,0.0786,0.9676,-0.0444,0.2356,4.5200,1.3000,-8.5800,0.0000,0.0000,0.0000
41565,0,0,1,0.0000,3.8013,5.5371,1.8237,3.5596,-0.0128,0.0110,-1.7358,0.9009,0.0120,9.8210,0.0263,-0.2441,-1.6785,0.3357,0.0120,9.8210,0.0263,-0.2441,-1.6785,0.3357,9.8234,-0.1234,0.2230,0.0066,-0.0205,-0.0016,0.6314,-0.3353,-0.6159,-0.3311,0.6777,0.3389,-0.5817,0.2955,9.7000,1.0400,0.9000,0.0000,0.0000,0.0000,0.7050,0.1965,-0.6606,0.1666,9.7500,0.6100,0.5600,0.0000,0.0000,0.0000,0.0881,-0.9746,-0.0201,-0.2048,3.9300,-1.5800,-8.8100,0.0000,0.0000,0.0000,0.7352,0.0760,-0.6645,0.1095,9.7200,-0.3700,0.9700,0.0000,0.0000,0.0000,0.5682,0.4425,-0.5288,0.4488,9.7800,0.2500,0.4700,0.0000,0.0000,0.0000,0.0786,0.9676,-0.0444,0.2356,4.5500,1.3100,-8.5900,0.0000,0.0000,0.0000
41566,0,0,1,0.0000,3.8013,5.5371,1.8237,3.5596,0.0128,0.0165,-1.7358,0.9009,0.0407,9.8019,0.1173,-0.3662,-1.8616,0.1221,0.0407,9.8019,0.1173,-0.3662,-1.8616,0.1221,9.8234,-0.1234,0.2230,0.0066,-0.0205,-0.0016,0.6314,-0.3353,-0.6159,-0.3311,0.6777,0.3389,-0.5817,0.2955,9.7100,1.0500,0.9200,0.0000,0.0000,0.0000,0.7050,0.1965,-0.6606,0.1666,9.7500,0.6100,0.5600,0.0000,0.0000,0.0000,0.0881,-0.9746,-0.0201,-0.2048,3.9300,-1.5800,-8.8100,0.0000,0.0000,0.0000,0.7352,0.0760,-0.6645,0.1095,9.7500,-0.3700,0.9700,0.0000,0.0000,0.0000,0.5683,0.4425,-0.5288,0.4488,9.7800,0.2600,0.4700,0.0000,0.0000,0.0000,0.0786,0.9676,-0.0444,0.2356,4.5300,1.3000,-8.5800,0.0000,0.0000,0.0000
41567,0,0,1,0.0000,3.8013,5.5371,1.8237,3.5596,0.0165,-0.0201,-1.7358,0.9009,0.0120,9.8210,0.0431,-0.2441,-1.8616,0.3052,0.0120,9.8210,0.0431,-0.2441,-1.8616,0.3052,9.8234,-0.1234,0.2230,0.0066,-0.0205,-0.0016,0.6314,-0.3353,-0.6159,-0.3311,0.6777,0.3389,-0.5817,0.2955,9.6900,1.0500,0.9000,0.0000,0.0000,0.0000,0.7050,0.1965,-0.6606,0.1666,9.7600,0.6200,0.5700,0.0000,0.0000,0.0000,0.0881,-0.9746,-0.0201,-0.2048,3.9300,-1.5600,-8.8200,0.0000,0.0000,0.0000,0.7352,0.0760,-0.6645,0.1095,9.7200,-0.3700,0.9900,0.0000,0.0000,0.0000,0.5683,0.4426,-0.5287,0.4488,9.7900,0.2800,0.4600,0.0000,0.0000,0.0000,0.0786,0.9676,-0.0444,0.2356,4.5300,1.3100,-8.5600,0.0000,0.0000,0.0000
41568,0,0,1,0.0000,3.8232,5.5371,1.8457,3.5596,0.0000,-0.0220,-1.7358,0.9009,0.0215,9.7875,0.0670,-0.1831,-1.7090,0.3052,0.0215,9.7875,0.0670,-0.1831,-1.7090,0.3052,9.8189,-0.1397,0.2647,-0.0030,-0.0193,-0.0017,0.6313,-0.3354,-0.6159,-0.3311,0.6777,0.3389,-0.5817,0.2955,9.6900,1.0500,0.9000,0.0000,0.0000,0.0000,0.7050,0.1965,-0.6606,0.1667,9.7500,0.5800,0.5600,0.0000,0.0000,0.0000,0.0881,-0.9746,-0.0201,-0.2048,3.9300,-1.5800,-8.8200,0.0000,0.0000,0.0000,0.7352,0.0760,-0.6645,0.1095,9.7200,-0.3700,0.9900,0.0000,0.0000,0.0000,0.5683,0.4426,-0.5287,0.4488,9.7700,0.2900,0.4700,0.0000,0.0000,0.0000,0.0786,0.9676,-0.0444,0.2356,4.5500,1.3200,-8.5800,0.0000,0.0000,0.0000
41569,0,0,1,0.0000,3.8232,5.5371,1.8457,3.5596,0.0000,0.0110,-1.7358,0.9229,-0.0048,9.8114,0.0431,-0.2441,-1.6785,0.2747,-0.0048,9.8114,0.0431,-0.2441,-1.6785,0.2747,9.8189,-0.1397,0.2647,-0.0030,-0.0193,-0.0017,0.6313,-0.3354,-0.6159,-0.3311,0.6777,0.3389,-0.5817,0.2955,9.6900,1.0400,0.9100,0.0000,0.0000,0.0000,0.7050,0.1965,-0.6606,0.1667,9.7600,0.5800,0.5300,0.0000,0.0000,0.0000,0.0881,-0.9746,-0.0201,-0.2048,3.9300,-1.5800,-8.8100,0.0000,0.0000,0.0000,0.7352,0.0760,-0.6645,0.1095,9.7200,-0.3300,1.0000,0.0000,0.0000,0.0000,0.5683,0.4426,-0.5287,0.4488,9.7600,0.2800,0.4600,0.0000,0.0000,0.0000,0.0786,0.9676,-0.0444,0.2356,4.5500,1.3200,-8.5800,0.0000,0.0000,0.0000
41570,0,0,1,0.0000,3.8232,5.5371,1.8457,3.5596,-0.0055,0.0201,-1.7358,0.9229,-0.0096,9.7827,0.0168,-0.3662,-1.7090,0.2136,-0.0096,9.7827,0.0168,-0.3662,-1.7090,0.2136,9.8283,-0.1119,0.2115,-0.0081,-0.0243,-0.0019,0.6313,-0.3354,-0.6160,-0.3311,0.6777,0.3389,-0.5817,0.2955,9.7400,1.0600,0.9100,0.0000,0.0000,0.0000,0.7050,0.1965,-0.6606,0.1667,9.7600,0.5800,0.5300,0.0000,0.0000,0.0000,0.0881,-0.9746,-0.0201,-0.2048,3.9300,-1.5800,-8.8100,0.0000,0.0000,0.0000,0.7352,0.0760,-0.6645,0.1095,9.7100,-0.3600,1.0100,0.0000,0.0000,0.0000,0.5683,0.4426,-0.5287,0.4488,9.7400,0.2800,0.4800,0.0000,0.0000,0.0000,0.0786,0.9676,-0.0444,0.2356,4.5400,1.3100,-8.5700,0.0000,0.0000,0.0000
41571,0,0,1,0.0000,3.8232,5.5371,1.8457,3.5596,-0.0018,0.0183,-1.7358,0.9229,0.0192,9.8186,0.0694,-0.3357,-1.8005,0.1221,0.0192,9.8186,0.0694,-0.3357,-1.8005,0.1221,9.8283,-0.1119,0.2115,-0.0081,-0.0243,-0.0019,0.6313,-0.3354,-0.6160,-0.3311,0.6777,0.3389,-0.5817,0.2955,9.7000,1.0500,0.9600,0.0000,0.0000,0.0000,0.7050,0.1965,-0.6606,0.1667,9.7500,0.5900,0.5400,0.0000,0.0000,0.0000,0.0881,-0.9746,-0.0201,-0.2048,3.9500,-1.5900,-8.8200,0.0000,0.0000,0.0000,0.7352,0.0760,-0.6645,0.1095,9.7200,-0.3600,1.0100,0.0000,0.0000,0.0000,0.5683,0.4426,-0.5287,0.4488,9.7400,0.2800,0.4800,0.0000,0.0000,0.0000,0.0786,0.9676,-0.0444,0.2356,4.5300,1.3000,-8.5800,0.0000,0.0000,0.0000
41572,0,0,1,0.0000,3.8232,5.5371,1.8457,3.5596,0.0000,0.0092,-1.7358,0.9229,-0.0239,9.7971,0.0024,-0.2747,-1.5564,0.0610,-0.0239,9.7971,0.0024,-0.2747,-1.5564,0.0610,9.8283,-0.1119,0.2115,-0.0081,-0.0243,-0.0019,0.6313,-0.3354,-0.6160,-0.3311,0.6777,0.3389,-0.5817,0.2955,9.7000,1.0600,0.9200,0.0000,0.0000,0.0000,0.7050,0.1965,-0.6606,0.1667,9.7600,0.5700,0.5200,0.0000,0.0000,0.0000,0.0881,-0.9746,-0.0201,-0.2048,3.9500,-1.5900,-8.8200,0.0000,0.0000,0.0000,0.7352,0.0759,-0.6645,0.1094,9.7300,-0.3500,1.0100,0.0000,0.0000,0.0000,0.5683,0.4426,-0.5287,0.4488,9.7400,0.2800,0.4800,0.0000,0.0000,0.0000,0.0786,0.9676,-0.0444,0.2356,4.5300,1.3100,-8.5800,0.0000,0.0000,0.0000
41573,0,0,1,0.0000,3.8232,5.5371,1.8457,3.5596,-0.0055,0.0165,-1.7358,0.9229,0.0263,9.7779,0.0790,-0.4272,-1.6479,0.2441,0.0263,9.7779,0.0790,-0.4272,-1.6479,0.2441,9.7912,-0.1343,0.2428,-0.0111,-0.0190,-0.0004,0.6313,-0.3354,-0.6160,-0.3311,0.6777,0.3389,-0.5817,0.2955,9.7000,1.0600,0.9200,0.0000,0.0000,0.0000,0.7050,0.1964,-0.6606,0.1667,9.7800,0.5500,0.5100,0.0000,0.0000,0.0000,0.0881,-0.9746,-0.0201,-0.2048,3.9300,-1.5900,-8.8100,0.0000,0.0000,0.0000,0.7352,0.0759,-0.6645,0.1094,9.7300,-0.3500,1.0100,0.0000,0.0000,0.0000,0.5683,0.4426,-0.5287,0.4488,9.7500,0.3000,0.4500,0.0000,0.0000,0.0000,0.0786,0.9676,-0.0444,0.2356,4.5500,1.3000,-8.5800,0.0000,0.0000,0.0000
41574,0,0,1,0.0000,3.8232,5.5371,1.8457,3.5596,0.0146,-0.0055,-1.7358,0.9229,0.0072,9.8138,0.0239,-0.3052,-1.5564,-0.0610,0.0072,9.8138,0.0239,-0.3052,-1.5564,-0.0610,9.7912,-0.1343,0.2428,-0.0111,-0.0190,-0.0004,0.6313,-0.3354,-0.6160,-0.3311,0.6777,0.3389,-0.5817,0.2955,9.6900,1.0400,0.9500,0.0000,0.0000,0.0000,0.7050,0.1964,-0.6606,0.1668,9.7700,0.5300,0.5000,0.0000,0.0000,0.0000,0.0881,-0.9746,-0.0201,-0.2048,3.9100,-1.5800,-8.8200,0.0000,0.0000,0.0000,0.7352,0.0759,-0.6645,0.1094,9.7300,-0.3500,1.0000,0.0000,0.0000,0.0000,0.5683,0.4426,-0.5287,0.4488,9.7600,0.3200,0.4500,0.0000,0.0000,0.0000,0.0786,0.9676,-0.0444,0.2356,4.5500,1.3000,-8.5800,0.0000,0.0000,0.0000
41575,0,0,1,0.0000,3.8232,5.5371,1.8457,3.5596,0.0128,0.0275,-1.7358,0.9229,-0.0335,9.7683,0.0694,-0.3052,-1.4954,0.0305,-0.0335,9.7683,0.0694,-0.3052,-1.4954,0.0305,9.7972,-0.1559,0.2396,-0.0071,-0.0172,-0.0002,0.6312,-0.3354,-0.6160,-0.3311,0.6777,0.3389,-0.5817,0.2955,9.6600,1.0900,0.9400,0.0000,0.0000,0.0000,0.7050,0.1964,-0.6606,0.1668,9.7700,0.5300,0.5000,0.0000,0.0000,0.0000,0.0881,-0.9746,-0.0201,-0.2048,3.9300,-1.5700,-8.8200,0.0000,0.0000,0.0000,0.7352,0.0759,-0.6645,0.1094,9.7300,-0.3300,1.0300,0.0000,0.0000,0.0000,0.5684,0.4426,-0.5287,0.4487,9.7500,0.3400,0.4500,0.0000,0.0000,0.0000,0.0786,0.9676,-0.0444,0.2356,4.5200,1.3000,-8.5700,0.0000,0.0000,0.0000
41576,0,0,1,0.0000,3.8232,5.5371,1.8457,3.5596,-0.0183,-0.0183,-1.7358,0.9229,0.0239,9.7875,0.0335,-0.3052,-1.5564,0.1526,0.0239,9.7875,0.0335,-0.3052,-1.5564,0.1526,9.7972,-0.1559,0.2396,-0.0071,-0.0172,-0.0002,0.6312,-0.3354,-0.6160,-0.3311,0.6777,0.3389,-0.5817,0.2955,9.7000,1.0800,0.9400,0.0000,0.0000,0.0000,0.7050,0.1964,-0.6606,0.1668,9.7700,0.5400,0.4800,0.0000,0.0000,0.0000,0.0881,-0.9746,-0.0201,-0.2048,3.9200,-1.5600,-8.8200,0.0000,0.0000,0.0000,0.7352,0.0759,-0.6645,0.1094,9.7200,-0.3400,1.0100,0.0000,0.0000,0.0000,0.5684,0.4426,-0.5287,0.4487,9.7500,0.3400,0.4500,0.0000,0.0000,0.0000,0.0786,0.9676,-0.0444,0.2355,4.5400,1.3000,-8.5700,0.0000,0.0000,0.0000
41577,0,0,1,0.0000,3.8232,5.5371,1.8457,3.5596,-0.0018,-0.0092,-1.7358,0.9229,-0.0192,9.7683,0.0335,-0.3967,-1.6785,0.1526,-0.0192,9.7683,0.0335,-0.3967,-1.6785,0.1526,9.7972,-0.1559,0.2396,-0.0071,-0.0172,-0.0002,0.6312,-0.3354,-0.6160,-0.3311,0.6777,0.3389,-0.5817,0.2955,9.6900,1.0900,0.9100,0.0000,0.0000,0.0000,0.7051,0.1964,-0.6606,0.1668,9.7700,0.5400,0.5000,0.0000,0.0000,0.0000,0.0881,-0.9746,-0.0201,-0.2048,3.9200,-1.5600,-8.8200,0.0000,0.0000,0.0000,0.7352,0.0759,-0.6645,0.1094,9.7200,-0.3200,1.0100,0.0000,0.0000,0.0000,0.5684,0.4426,-0.5287,0.4487,9.7500,0.3400,0.4200,0.0000,0.0000,0.0000,0.0786,0.9676,-0.0444,0.2355,4.5300,1.3100,-8.5700,0.0000,0.0000,0.0000
41578,0,0,1,0.0000,3.8232,5.5371,1.8457,3.5596,0.0128,0.0000,-1.7358,0.9229,-0.0287,9.7827,0.0599,-0.6714,-1.8311,0.0610,-0.0287,9.7827,0.0599,-0.6714,-1.8311,0.0610,9.8071,-0.1373,0.1889,-0.0145,-0.0240,-0.0008,0.6312,-0.3355,-0.6160,-0.3311,0.6777,0.3389,-0.5817,0.2955,9.6900,1.0900,0.9100,0.0000,0.0000,0.0000,0.7051,0.1964,-0.6605,0.1668,9.7900,0.5000,0.4700,0.0000,0.0000,0.0000,0.0882,-0.9746,-0.0201,-0.2048,3.9400,-1.5800,-8.8100,0.0000,0.0000,0.0000,0.7352,0.0759,-0.6645,0.1094,9.7200,-0.3200,1.0100,0.0000,0.0000,0.0000,0.5684,0.4426,-0.5287,0.4487,9.7500,0.3600,0.4400,0.0000,0.0000,0.0000,0.0786,0.9676,-0.0444,0.2355,4.5300,1.3100,-8.5700,0.0000,0.0000,0.0000
41579,0,0,1,0.0000,3.8232,5.5371,1.8457,3.5596,-0.0092,-0.0055,-1.7358,0.9229,-0.0096,9.7779,0.0383,-0.3052,-1.4343,0.1221,-0.0096,9.7779,0.0383,-0.3052,-1.4343,0.1221,9.8071,-0.1373,0.1889,-0.0145,-0.0240,-0.0008,0.6312,-0.3355,-0.6160,-0.3311,0.6777,0.3389,-0.5817,0.2955,9.7200,1.0600,0.9400,0.0000,0.0000,0.0000,0.7051,0.1964,-0.6605,0.1669,9.7900,0.4900,0.4700,0.0000,0.0000,0.0000,0.0882,-0.9746,-0.0201,-0.2048,3.9300,-1.5900,-8.8100,0.0000,0.0000,0.0000,0.7352,0.0759,-0.6645,0.1093,9.7500,-0.3200,1.0100,0.0000,0.0000,0.0000,0.5684,0.4426,-0.5286,0.4487,9.7600,0.3600,0.4600,0.0000,0.0000,0.0000,0.0786,0.9676,-0.0444,0.2355,4.5300,1.3100,-8.5700,0.0000,0.0000,0.0000
41580,0,0,1,0.0000,3.8232,5.5371,1.8457,3.5596,0.0110,0.0366,-1.7139,0.9229,0.0335,9.8593,0.0790,-0.2747,-1.5259,0.0610,0.0335,9.8593,0.0790,-0.2747,-1.5259,0.0610,9.8121,-0.1108,0.2220,-0.0143,-0.0260,-0.0000,0.6311,-0.3355,-0.6161,-0.3311,0.6777,0.3389,-0.5817,0.2955,9.7000,1.0300,0.9700,0.0000,0.0000,0.0000,0.7051,0.1964,-0.6605,0.1669,9.7900,0.4900,0.4700,0.0000,0.0000,0.0000,0.0882,-0.9746,-0.0201,-0.2048,3.9300,-1.5700,-8.8300,0.0000,0.0000,0.0000,0.7352,0.0758,-0.6645,0.1093,9.7500,-0.3000,1.0100,0.0000,0.0000,0.0000,0.5684,0.4426,-0.5286,0.4487,9.7600,0.3600,0.4600,0.0000,0.0000,0.0000,0.0786,0.9676,-0.0444,0.2355,4.5200,1.3100,-8.5700,0.0000,0.0000,0.0000
41581,0,0,1,0.0000,3.8232,5.5371,1.8457,3.5596,-0.0220,-0.0146,-1.7139,0.9229,0.0144,9.8402,0.0311,-0.2747,-1.7090,0.0916,0.0144,9.8402,0.0311,-0.2747,-1.7090,0.0916,9.8121,-0.1108,0.2220,-0.0143,-0.0260,-0.0000,0.6311,-0.3355,-0.6161,-0.3311,0.6777,0.3389,-0.5817,0.2954,9.6700,1.0500,0.9500,0.0000,0.0000,0.0000,0.7051,0.1964,-0.6605,0.1669,9.7600,0.4900,0.4600,0.0000,0.0000,0.0000,0.0882,-0.9746,-0.0201,-0.2048,3.9300,-1.5700,-8.8300,0.0000,0.0000,0.0000,0.7352,0.0758,-0.6645,0.1093,9.7300,-0.3000,1.0300,0.0000,0.0000,0.0000,0.5684,0.4426,-0.5286,0.4487,9.7900,0.3800,0.4600,0.0000,0.0000,0.0000,0.0786,0.9676,-0.0444,0.2355,4.5100,1.3000,-8.5700,0.0000,0.0000,0.0000
41582,0,0,1,0.0000,3.8232,5.5371,1.8457,3.5596,-0.0037,0.0092,-1.7139,0.9229,-0.0551,9.7923,0.0503,-0.2747,-1.6479,0.1831,-0.0551,9.7923,0.0503,-0.2747,-1.6479,0.1831,9.8121,-0.1108,0.2220,-0.0143,-0.0260,-0.0000,0.6311,-0.3355,-0.6161,-0.3311,0.6777,0.3389,-0.5817,0.2955,9.7100,1.0500,0.9300,0.0000,0.0000,0.0000,0.7051,0.1963,-0.6605,0.1669,9.7700,0.5000,0.5000,0.0000,0.0000,0.0000,0.0882,-0.9746,-0.0201,-0.2048,3.9200,-1.5600,-8.8300,0.0000,0.0000,0.0000,0.7352,0.0758,-0.6645,0.1093,9.7200,-0.3100,1.0200,0.0000,0.0000,0.0000,0.5684,0.4427,-0.5286,0.4487,9.7700,0.3500,0.4500,0.0000,0.0000,0.0000,0.0786,0.9676,-0.0444,0.2355,4.5300,1.2900,-8.5900,0.0000,0.0000,0.0000
41583,0,0,1,0.0000,3.8232,5.5371,1.8457,3.5596,0.0165,-0.0238,-1.7139,0.9229,-0.0575,9.7540,0.0503,-0.3357,-1.4343,0.2136,-0.0575,9.7540,0.0503,-0.3357,-1.4343,0.2136,9.8117,-0.1382,0.2393,-0.0088,-0.0228,-0.0019,0.6311,-0.3355,-0.6161,-0.3311,0.6777,0.3389,-0.5817,0.2955,9.7100,1.0500,0.9300,0.0000,0.0000,0.0000,0.7051,0.1963,-0.6605,0.1669,9.7700,0.5300,0.4900,0.0000,0.0000,0.0000,0.0881,-0.9746,-0.0201,-0.2048,3.9400,-1.5500,-8.8200,0.0000,0.0000,0.0000,0.7352,0.0758,-0.6645,0.1093,9.7200,-0.3100,1.0200,0.0000,0.0000,0.0000,0.5684,0.4427,-0.5286,0.4487,9.7700,0.3300,0.4600,0.0000,0.0000,0.0000,0.0786,0.9676,-0.0444,0.2355,4.5300,1.3100,-8.5700,0.0000,0.0000,0.0000
41584,0,0,1,0.0000,3.8232,5.5371,1.8457,3.5596,0.0165,0.0018,-1.7139,0.9229,0.0383,9.8426,0.1101,-0.4578,-1.6479,0.1221,0.0383,9.8426,0.1101,-0.4578,-1.6479,0.1221,9.8117,-0.1382,0.2393,-0.0088,-0.0228,-0.0019,0.6311,-0.3355,-0.6161,-0.3311,0.6777,0.3388,-0.5817,0.2954,9.7100,1.0200,0.9600,0.0000,0.0000,0.0000,0.7051,0.1963,-0.6605,0.1669,9.7600,0.5200,0.4700,0.0000,0.0000,0.0000,0.0882,-0.9745,-0.0201,-0.2048,3.9500,-1.5600,-8.8100,0.0000,0.0000,0.0000,0.7352,0.0758,-0.6645,0.1093,9.7700,-0.2800,1.0100,0.0000,0.0000,0.0000,0.5684,0.4427,-0.5286,0.4487,9.7800,0.3300,0.4600,0.0000,0.0000,0.0000,0.0786,0.9676,-0.0444,0.2355,4.5300,1.3100,-8.5700,0.0000,0.0000,0.0000
41585,0,0,1,0.0000,3.8232,5.5371,1.8457,3.5596,0.0183,0.0037,-1.7139,0.9229,-0.0072,9.7683,0.0072,-0.5493,-1.5869,0.0000,-0.0072,9.7683,0.0072,-0.5493,-1.5869,0.0000,9.8056,-0.1649,0.2474,-0.0102,-0.0220,0.0018,0.6310,-0.3356,-0.6161,-0.3310,0.6777,0.3388,-0.5817,0.2954,9.6800,1.0300,0.9600,0.0000,0.0000,0.0000,0.7051,0.1963,-0.6605,0.1669,9.7600,0.5200,0.4700,0.0000,0.0000,0.0000,0.0882,-0.9745,-0.0201,-0.2048,3.9400,-1.5700,-8.8200,0.0000,0.0000,0.0000,0.7352,0.0758,-0.6645,0.1092,9.7300,-0.2600,1.0300,0.0000,0.0000,0.0000,0.5684,0.4427,-0.5286,0.4487,9.7800,0.3300,0.4600,0.0000,0.0000,0.0000,0.0786,0.9676,-0.0444,0.2355,4.5300,1.2900,-8.5700,0.0000,0.0000,0.0000
41586,0,0,1,0.0000,3.8452,5.5591,1.8457,3.5596,0.0238,-0.0110,-1.7139,0.9229,-0.0120,9.8258,0.0886,-0.4883,-1.4038,0.0000,-0.0120,9.8258,0.0886,-0.4883,-1.4038,0.0000,9.8056,-0.1649,0.2474,-0.0102,-0.0220,0.0018,0.6310,-0.3356,-0.6161,-0.3310,0.6777,0.3388,-0.5818,0.2954,9.6900,1.0400,0.9500,0.0000,0.0000,0.0000,0.7051,0.1963,-0.6605,0.1669,9.7900,0.5400,0.4700,0.0000,0.0000,0.0000,0.0882,-0.9745,-0.0201,-0.2048,3.9400,-1.5700,-8.8200,0.0000,0.0000,0.0000,0.7352,0.0758,-0.6645,0.1092,9.7500,-0.2600,0.9900,0.0000,0.0000,0.0000,0.5684,0.4427,-0.5286,0.4486,9.8100,0.3100,0.4700,0.0000,0.0000,0.0000,0.0786,0.9676,-0.0444,0.2355,4.5100,1.3100,-8.5800,0.0000,0.0000,0.0000
41587,0,0,1,0.0000,3.8452,5.5591,1.8457,3.5596,0.0000,0.0092,-1.7139,0.9229,-0.0215,9.7875,0.0383,-0.5188,-1.6785,0.1831,-0.0215,9.7875,0.0383,-0.5188,-1.6785,0.1831,9.8056,-0.1649,0.2474,-0.0102,-0.0220,0.0018,0.6310,-0.3356,-0.6161,-0.3310,0.6777,0.3388,-0.5818,0.2954,9.6700,1.0300,0.9600,0.0000,0.0000,0.0000,0.7051,0.1963,-0.6605,0.1670,9.7600,0.5600,0.4800,0.0000,0.0000,0.0000,0.0882,-0.9745,-0.0201,-0.2048,3.9100,-1.5700,-8.8200,0.0000,0.0000,0.0000,0.7352,0.0758,-0.6645,0.1092,9.7500,-0.2600,0.9900,0.0000,0.0000,0.0000,0.5685,0.4427,-0.5286,0.4486,9.7600,0.3000,0.4800,0.0000,0.0000,0.0000,0.0786,0.9676,-0.0444,0.2355,4.5200,1.3000,-8.5700,0.0000,0.0000,0.0000
41588,0,0,1,0.0000,3.8452,5.5591,1.8457,3.5596,0.0000,0.0073,-1.7139,0.9229,-0.0192,9.7636,0.0503,-0.3967,-1.6174,0.0610,-0.0192,9.7636,0.0503,-0.3967,-1.6174,0.0610,9.7701,-0.1984,0.2301,-0.0119,-0.0268,-0.0011,0.6310,-0.3356,-0.6161,-0.3310,0.6777,0.3388,-0.5818,0.2954,9.6700,1.0300,0.9600,0.0000,0.0000,0.0000,0.7051,0.1962,-0.6605,0.1670,9.7800,0.5600,0.4600,0.0000,0.0000,0.0000,0.0882,-0.9745,-0.0201,-0.2048,3.9300,-1.5900,-8.8200,0.0000,0.0000,0.0000,0.7352,0.0758,-0.6645,0.1092,9.7600,-0.2500,1.0100,0.0000,0.0000,0.0000,0.5685,0.4427,-0.5286,0.4486,9.7600,0.3000,0.4700,0.0000,0.0000,0.0000,0.0786,0.9676,-0.0444,0.2355,4.5200,1.3000,-8.5700,0.0000,0.0000,0.0000
41589,0,0,1,0.0000,3.8452,5.5591,1.8457,3.5596,0.0000,-0.0201,-1.7139,0.9229,0.0168,9.7827,0.0263,-0.3662,-1.2512,0.0000,0.0168,9.7827,0.0263,-0.3662,-1.2512,0.0000,9.7701,-0.1984,0.2301,-0.0119,-0.0268,-0.0011,0.6310,-0.3356,-0.6161,-0.3310,0.6777,0.3388,-0.5818,0.2955,9.6700,1.0500,0.9500,0.0000,0.0000,0.0000,0.7051,0.1962,-0.6605,0.1670,9.7700,0.5400,0.4500,0.0000,0.0000,0.0000,0.0882,-0.9745,-0.0201,-0.2048,3.9500,-1.5700,-8.8200,0.0000,0.0000,0.0000,0.7352,0.0758,-0.6645,0.1092,9.7200,-0.2300,1.0200,0.0000,0.0000,0.0000,0.5685,0.4427,-0.5286,0.4486,9.7800,0.3100,0.4400,0.0000,0.0000,0.0000,0.0786,0.9676,-0.0444,0.2355,4.5200,1.2900,-8.5700,0.0000,0.0000,0.0000
41590,0,0,1,0.0000,3.8452,5.5591,1.8457,3.5596,0.0201,0.0238,-1.7139,0.9229,0.0479,9.8114,0.0503,-0.4578,-1.3123,-0.1831,0.0479,9.8114,0.0503,-0.4578,-1.3123,-0.1831,9.7637,-0.1824,0.2399,-0.0044,-0.0274,0.0010,0.6309,-0.3357,-0.6162,-0.3310,0.6777,0.3388,-0.5818,0.2954,9.6800,1.0600,0.9400,0.0000,0.0000,0.0000,0.7051,0.1962,-0.6605,0.1670,9.7800,0.5200,0.5000,0.0000,0.0000,0.0000,0.0882,-0.9745,-0.0201,-0.2048,3.9400,-1.5800,-8.8200,0.0000,0.0000,0.0000,0.7352,0.0757,-0.6645,0.1091,9.7200,-0.2700,1.0000,0.0000,0.0000,0.0000,0.5685,0.4427,-0.5286,0.4486,9.7900,0.2900,0.4500,0.0000,0.0000,0.0000,0.0786,0.9676,-0.0444,0.2355,4.5200,1.2900,-8.5800,0.0000,0.0000,0.0000
41591,0,0,1,0.0000,3.8452,5.5591,1.8457,3.5596,0.0073,0.0018,-1.7139,0.9229,-0.0168,9.8138,0.0527,-0.4883,-1.5869,0.0610,-0.0168,9.8138,0.0527,-0.4883,-1.5869,0.0610,9.7637,-0.1824,0.2399,-0.0044,-0.0274,0.0010,0.6309,-0.3357,-0.6162,-0.3310,0.6777,0.3388,-0.5818,0.2954,9.6800,1.0800,0.9400,0.0000,0.0000,0.0000,0.7051,0.1962,-0.6605,0.1670,9.7800,0.5200,0.5000,0.0000,0.0000,0.0000,0.0882,-0.9745,-0.0201,-0.2048,3.9400,-1.5800,-8.8200,0.0000,0.0000,0.0000,0.7352,0.0757,-0.6645,0.1091,9.7300,-0.2800,0.9700,0.0000,0.0000,0.0000,0.5685,0.4427,-0.5286,0.4486,9.7900,0.2900,0.4500,0.0000,0.0000,0.0000,0.0786,0.9676,-0.0444,0.2355,4.5000,1.2900,-8.5700,0.0000,0.0000,0.0000
41592,0,0,1,0.0000,3.8452,5.5591,1.8457,3.5596,-0.0055,0.0275,-1.7139,0.9229,-0.0024,9.8114,0.0407,-0.3967,-1.6785,-0.0916,-0.0024,9.8114,0.0407,-0.3967,-1.6785,-0.0916,9.7637,-0.1824,0.2399,-0.0044,-0.0274,0.0010,0.6309,-0.3357,-0.6162,-0.3310,0.6777,0.3388,-0.5818,0.2955,9.6900,1.0700,0.9400,0.0000,0.0000,0.0000,0.7051,0.1962,-0.6605,0.1670,9.7500,0.5500,0.5100,0.0000,0.0000,0.0000,0.0882,-0.9745,-0.0201,-0.2048,3.9100,-1.5600,-8.8200,0.0000,0.0000,0.0000,0.7352,0.0757,-0.6645,0.1091,9.7500,-0.2500,0.9600,0.0000,0.0000,0.0000,0.5685,0.4427,-0.5286,0.4486,9.7700,0.2900,0.4700,0.0000,0.0000,0.0000,0.0786,0.9676,-0.0444,0.2355,4.5300,1.3000,-8.5800,0.0000,0.0000,0.0000
41593,0,0,1,0.0000,3.8452,5.5591,1.8457,3.5596,-0.0110,0.0073,-1.7139,0.9448,0.0335,9.8354,0.0790,-0.3967,-1.4343,-0.1221,0.0335,9.8354,0.0790,-0.3967,-1.4343,-0.1221,9.7697,-0.1956,0.2092,-0.0081,-0.0304,0.0018,0.6309,-0.3357,-0.6162,-0.3310,0.6777,0.3388,-0.5818,0.2955,9.6900,1.0700,0.9400,0.0000,0.0000,0.0000,0.7051,0.1962,-0.6606,0.1670,9.7500,0.5400,0.5000,0.0000,0.0000,0.0000,0.0882,-0.9745,-0.0201,-0.2048,3.9500,-1.5900,-8.8100,0.0000,0.0000,0.0000,0.7352,0.0757,-0.6645,0.1091,9.7500,-0.2500,0.9600,0.0000,0.0000,0.0000,0.5685,0.4427,-0.5286,0.4486,9.7900,0.2800,0.4500,0.0000,0.0000,0.0000,0.0786,0.9676,-0.0444,0.2355,4.5300,1.3000,-8.5800,0.0000,0.0000,0.0000
