LoopCnt,H10Mode,H10AssistLevel,ImuHubConnected,SyncSignal,LeftHipAngle,RightHipAngle,LeftThighAngle,RightThighAngle,LeftHipTorque,RightHipTorque,LeftHipMotorAngle,RightHipMotorAngle,LeftHipImuGlobalAccX,LeftHipImuGlobalAccY,LeftHipImuGlobalAccZ,LeftHipImuGlobalGyrX,LeftHipImuGlobalGyrY,LeftHipImuGlobalGyrZ,RightHipImuGlobalAccX,RightHipImuGlobalAccY,RightHipImuGlobalAccZ,RightHipImuGlobalGyrX,RightHipImuGlobalGyrY,RightHipImuGlobalGyrZ,TrunkIMU_LocalAccX,TrunkIMU_LocalAccY,TrunkIMU_LocalAccZ,TrunkIMU_LocalGyrX,TrunkIMU_LocalGyrY,TrunkIMU_LocalGyrZ,TrunkIMU_QuatW,TrunkIMU_QuatX,TrunkIMU_QuatY,TrunkIMU_QuatZ,L_THIGH_IMU_QuatW,L_THIGH_IMU_QuatX,L_THIGH_IMU_QuatY,L_THIGH_IMU_QuatZ,L_THIGH_IMU_AccX,L_THIGH_IMU_AccY,L_THIGH_IMU_AccZ,L_THIGH_IMU_GyrX,L_THIGH_IMU_GyrY,L_THIGH_IMU_GyrZ,L_SHANK_IMU_QuatW,L_SHANK_IMU_QuatX,L_SHANK_IMU_QuatY,L_SHANK_IMU_QuatZ,L_SHANK_IMU_AccX,L_SHANK_IMU_AccY,L_SHANK_IMU_AccZ,L_SHANK_IMU_GyrX,L_SHANK_IMU_GyrY,L_SHANK_IMU_GyrZ,L_FOOT_IMU_QuatW,L_FOOT_IMU_QuatX,L_FOOT_IMU_QuatY,L_FOOT_IMU_QuatZ,L_FOOT_IMU_AccX,L_FOOT_IMU_AccY,L_FOOT_IMU_AccZ,L_FOOT_IMU_GyrX,L_FOOT_IMU_GyrY,L_FOOT_IMU_GyrZ,R_THIGH_IMU_QuatW,R_THIGH_IMU_QuatX,R_THIGH_IMU_QuatY,R_THIGH_IMU_QuatZ,R_THIGH_IMU_AccX,R_THIGH_IMU_AccY,R_THIGH_IMU_AccZ,R_THIGH_IMU_GyrX,R_THIGH_IMU_GyrY,R_THIGH_IMU_GyrZ,R_SHANK_IMU_QuatW,R_SHANK_IMU_QuatX,R_SHANK_IMU_QuatY,R_SHANK_IMU_QuatZ,R_SHANK_IMU_AccX,R_SHANK_IMU_AccY,R_SHANK_IMU_AccZ,R_SHANK_IMU_GyrX,R_SHANK_IMU_GyrY,R_SHANK_IMU_GyrZ,R_FOOT_IMU_QuatW,R_FOOT_IMU_QuatX,R_FOOT_IMU_QuatY,R_FOOT_IMU_QuatZ,R_FOOT_IMU_AccX,R_FOOT_IMU_AccY,R_FOOT_IMU_AccZ,R_FOOT_IMU_GyrX,R_FOOT_IMU_GyrY,R_FOOT_IMU_GyrZ
69788,0,0,1,0.0000,4.3945,7.1191,3.5596,6.2842,0.0018,-0.0073,-0.4395,1.8018,-0.1891,9.8210,-0.2346,1.6785,-1.3733,0.7935,-0.1891,9.8210,-0.2346,1.6785,-1.3733,0.7935,9.7784,0.1477,0.3277,0.0074,0.0065,-0.0010,0.7200,0.0110,-0.6938,0.0016,0.3758,-0.5437,-0.3941,-0.6385,9.7100,0.8400,0.9300,0.0000,0.0000,0.0000,0.4068,-0.5407,-0.3950,-0.6213,9.7000,0.4400,0.8900,0.0000,0.0000,0.0000,0.1413,-0.9562,-0.1730,-0.1889,3.9900,-1.9700,-8.6900,0.0000,0.0000,0.0000,0.6687,0.2969,-0.5814,0.3556,9.6800,-0.1100,1.4400,0.0000,0.0000,0.0000,0.5235,0.4495,-0.5130,0.5104,9.7500,-0.4600,0.6400,0.0000,0.0000,0.0000,0.0778,0.9657,-0.0955,0.2282,4.4900,1.0200,-8.6300,0.0000,0.0000,0.0000
69789,0,0,1,0.0000,4.3945,7.1191,3.5596,6.2842,0.0128,-0.0110,-0.4395,1.8018,-0.2634,9.7636,-0.2849,1.4038,-0.9155,0.7629,-0.2634,9.7636,-0.2849,1.4038,-0.9155,0.7629,9.7784,0.1477,0.3277,0.0074,0.0065,-0.0010,0.7200,0.0110,-0.6938,0.0016,0.3758,-0.5437,-0.3941,-0.6384,9.6900,0.8400,0.9500,0.0000,0.0000,0.0000,0.4068,-0.5407,-0.3949,-0.6213,9.7200,0.4800,0.8900,0.0000,0.0000,0.0000,0.1413,-0.9562,-0.1730,-0.1889,3.9800,-1.9700,-8.7000,0.0000,0.0000,0.0000,0.6687,0.2969,-0.5814,0.3556,9.6900,-0.1100,1.4000,0.0000,0.0000,0.0000,0.5235,0.4495,-0.5130,0.5104,9.7200,-0.4800,0.6600,0.0000,0.0000,0.0000,0.0778,0.9657,-0.0955,0.2282,4.4800,1.0100,-8.6400,0.0000,0.0000,0.0000
69790,0,0,1,0.0000,4.3945,7.1191,3.5596,6.2842,-0.0092,-0.0037,-0.4395,1.8018,-0.2466,9.7636,-0.2274,1.4954,-1.1902,0.2136,-0.2466,9.7636,-0.2274,1.4954,-1.1902,0.2136,9.7894,0.1313,0.3146,0.0050,0.0051,0.0007,0.7201,0.0110,-0.6938,0.0016,0.3758,-0.5437,-0.3941,-0.6384,9.6900,0.8400,0.9500,0.0000,0.0000,0.0000,0.4068,-0.5407,-0.3949,-0.6213,9.7200,0.4800,0.8800,0.0000,0.0000,0.0000,0.1413,-0.9562,-0.1730,-0.1889,3.9900,-1.9500,-8.6900,0.0000,0.0000,0.0000,0.6688,0.2968,-0.5814,0.3556,9.7400,-0.1500,1.3800,0.0000,0.0000,0.0000,0.5235,0.4495,-0.5130,0.5104,9.7200,-0.4800,0.6600,0.0000,0.0000,0.0000,0.0778,0.9657,-0.0955,0.2282,4.4800,1.0100,-8.6400,0.0000,0.0000,0.0000
69791,0,0,1,0.0000,4.3945,7.1191,3.5596,6.2842,-0.0183,0.0201,-0.4395,1.8018,-0.2155,9.7923,-0.2801,1.6479,-1.1902,0.5798,-0.2155,9.7923,-0.2801,1.6479,-1.1902,0.5798,9.7894,0.1313,0.3146,0.0050,0.0051,0.0007,0.7201,0.0110,-0.6938,0.0016,0.3758,-0.5437,-0.3942,-0.6384,9.7000,0.8300,0.9300,0.0000,0.0000,0.0000,0.4068,-0.5407,-0.3949,-0.6213,9.7200,0.4800,0.8800,0.0000,0.0000,0.0000,0.1413,-0.9562,-0.1730,-0.1889,3.9800,-1.9800,-8.7000,0.0000,0.0000,0.0000,0.6688,0.2968,-0.5814,0.3556,9.6700,-0.1400,1.3600,0.0000,0.0000,0.0000,0.5236,0.4495,-0.5130,0.5104,9.7600,-0.4700,0.6600,0.0000,0.0000,0.0000,0.0778,0.9657,-0.0955,0.2282,4.4600,1.0100,-8.6500,0.0000,0.0000,0.0000
69792,0,0,1,0.0000,4.3945,7.1191,3.5596,6.2842,0.0238,0.0183,-0.4395,1.8018,-0.2514,9.7348,-0.2394,1.3733,-0.9155,0.5188,-0.2514,9.7348,-0.2394,1.3733,-0.9155,0.5188,9.7894,0.1313,0.3146,0.0050,0.0051,0.0007,0.7201,0.0110,-0.6938,0.0016,0.3758,-0.5437,-0.3942,-0.6384,9.7100,0.8500,0.9500,0.0000,0.0000,0.0000,0.4068,-0.5407,-0.3949,-0.6213,9.7500,0.4700,0.9000,0.0000,0.0000,0.0000,0.1413,-0.9562,-0.1730,-0.1889,3.9900,-2.0000,-8.7200,0.0000,0.0000,0.0000,0.6688,0.2968,-0.5814,0.3556,9.6800,-0.1600,1.3600,0.0000,0.0000,0.0000,0.5236,0.4495,-0.5130,0.5104,9.7600,-0.4500,0.6700,0.0000,0.0000,0.0000,0.0778,0.9657,-0.0955,0.2282,4.4500,1.0200,-8.6400,0.0000,0.0000,0.0000
69793,0,0,1,0.0000,4.3945,7.1191,3.5596,6.2842,0.0110,0.0110,-0.4395,1.8018,-0.1413,9.8306,-0.2538,1.5259,-1.1292,0.5188,-0.1413,9.8306,-0.2538,1.5259,-1.1292,0.5188,9.7573,0.1349,0.3255,0.0085,0.0057,0.0016,0.7201,0.0111,-0.6938,0.0017,0.3759,-0.5437,-0.3942,-0.6384,9.7000,0.8200,0.9500,0.0000,0.0000,0.0000,0.4068,-0.5407,-0.3949,-0.6213,9.7300,0.4800,0.9400,0.0000,0.0000,0.0000,0.1413,-0.9562,-0.1730,-0.1889,3.9900,-2.0000,-8.7200,0.0000,0.0000,0.0000,0.6688,0.2968,-0.5814,0.3555,9.6600,-0.1500,1.3800,0.0000,0.0000,0.0000,0.5236,0.4495,-0.5130,0.5104,9.7500,-0.4600,0.6900,0.0000,0.0000,0.0000,0.0778,0.9657,-0.0955,0.2282,4.4600,1.0300,-8.6400,0.0000,0.0000,0.0000
69794,0,0,1,0.0000,4.3945,7.1191,3.5596,6.2842,0.0092,-0.0110,-0.4395,1.8018,-0.2274,9.7875,-0.2777,1.5869,-1.3123,0.5798,-0.2274,9.7875,-0.2777,1.5869,-1.3123,0.5798,9.7573,0.1349,0.3255,0.0085,0.0057,0.0016,0.7201,0.0111,-0.6938,0.0017,0.3759,-0.5437,-0.3942,-0.6384,9.7100,0.8300,0.9500,0.0000,0.0000,0.0000,0.4068,-0.5407,-0.3949,-0.6213,9.7500,0.5000,0.9800,0.0000,0.0000,0.0000,0.1413,-0.9562,-0.1730,-0.1889,4.0000,-1.9700,-8.7200,0.0000,0.0000,0.0000,0.6688,0.2968,-0.5814,0.3555,9.6600,-0.1500,1.3800,0.0000,0.0000,0.0000,0.5236,0.4495,-0.5130,0.5104,9.7400,-0.4500,0.6900,0.0000,0.0000,0.0000,0.0778,0.9657,-0.0955,0.2282,4.4800,1.0400,-8.6500,0.0000,0.0000,0.0000
69795,0,0,1,0.0000,4.3945,7.1191,3.5596,6.2842,-0.0128,0.0110,-0.4395,1.8018,-0.2418,9.8330,-0.2969,1.5564,-1.0071,0.4578,-0.2418,9.8330,-0.2969,1.5564,-1.0071,0.4578,9.7521,0.1320,0.3312,0.0054,0.0074,-0.0037,0.7201,0.0111,-0.6938,0.0017,0.3759,-0.5437,-0.3942,-0.6384,9.7100,0.8300,0.9500,0.0000,0.0000,0.0000,0.4068,-0.5407,-0.3949,-0.6213,9.7800,0.5100,1.0300,0.0000,0.0000,0.0000,0.1413,-0.9562,-0.1730,-0.1889,4.0000,-1.9700,-8.7100,0.0000,0.0000,0.0000,0.6689,0.2968,-0.5814,0.3555,9.6600,-0.1400,1.4200,0.0000,0.0000,0.0000,0.5236,0.4495,-0.5130,0.5104,9.7400,-0.4500,0.6900,0.0000,0.0000,0.0000,0.0778,0.9657,-0.0955,0.2282,4.4800,1.0400,-8.6500,0.0000,0.0000,0.0000
69796,0,0,1,0.0000,4.3945,7.1191,3.5596,6.2842,-0.0073,-0.0128,-0.4395,1.8018,-0.2514,9.7588,-0.2610,1.7090,-1.0681,0.5798,-0.2514,9.7588,-0.2610,1.7090,-1.0681,0.5798,9.7521,0.1320,0.3312,0.0054,0.0074,-0.0037,0.7201,0.0111,-0.6938,0.0017,0.3759,-0.5437,-0.3942,-0.6384,9.7200,0.8600,0.9500,0.0000,0.0000,0.0000,0.4068,-0.5407,-0.3949,-0.6213,9.7800,0.5100,1.0300,0.0000,0.0000,0.0000,0.1413,-0.9562,-0.1730,-0.1889,4.0000,-1.9700,-8.7100,0.0000,0.0000,0.0000,0.6689,0.2967,-0.5814,0.3555,9.6700,-0.1400,1.5000,0.0000,0.0000,0.0000,0.5236,0.4495,-0.5130,0.5104,9.7600,-0.4700,0.6700,0.0000,0.0000,0.0000,0.0778,0.9657,-0.0955,0.2282,4.5000,1.0500,-8.6300,0.0000,0.0000,0.0000
69797,0,0,1,0.0000,4.3945,7.1191,3.5596,6.2842,0.0146,0.0201,-0.4395,1.8018,-0.2083,9.7731,-0.2777,1.8311,-1.3428,0.4883,-0.2083,9.7731,-0.2777,1.8311,-1.3428,0.4883,9.7521,0.1320,0.3312,0.0054,0.0074,-0.0037,0.7201,0.0111,-0.6938,0.0017,0.3759,-0.5437,-0.3942,-0.6384,9.7200,0.8300,0.9500,0.0000,0.0000,0.0000,0.4068,-0.5407,-0.3949,-0.6213,9.7700,0.5300,1.0300,0.0000,0.0000,0.0000,0.1413,-0.9562,-0.1730,-0.1889,4.0100,-1.9700,-8.7100,0.0000,0.0000,0.0000,0.6689,0.2967,-0.5813,0.3555,9.6900,-0.1300,1.4800,0.0000,0.0000,0.0000,0.5235,0.4495,-0.5130,0.5104,9.7400,-0.4600,0.6800,0.0000,0.0000,0.0000,0.0778,0.9657,-0.0955,0.2282,4.4700,1.0300,-8.6300,0.0000,0.0000,0.0000
69798,0,0,1,0.0000,4.4165,7.1191,3.5815,6.2842,-0.0165,0.0092,-0.4395,1.8018,-0.2274,9.7779,-0.2634,1.7090,-1.0681,0.3662,-0.2274,9.7779,-0.2634,1.7090,-1.0681,0.3662,9.7831,0.1227,0.3365,0.0026,0.0109,-0.0022,0.7201,0.0111,-0.6938,0.0017,0.3759,-0.5437,-0.3942,-0.6384,9.7200,0.8500,0.9500,0.0000,0.0000,0.0000,0.4068,-0.5407,-0.3949,-0.6213,9.7600,0.5000,1.0200,0.0000,0.0000,0.0000,0.1413,-0.9562,-0.1730,-0.1889,3.9900,-1.9900,-8.7100,0.0000,0.0000,0.0000,0.6689,0.2967,-0.5813,0.3555,9.7400,-0.1400,1.5000,0.0000,0.0000,0.0000,0.5235,0.4495,-0.5130,0.5104,9.7400,-0.4700,0.6600,0.0000,0.0000,0.0000,0.0778,0.9657,-0.0955,0.2282,4.5000,1.0100,-8.6300,0.0000,0.0000,0.0000
69799,0,0,1,0.0000,4.4165,7.1191,3.5815,6.2842,0.0055,-0.0073,-0.4395,1.8018,-0.2777,9.7875,-0.2945,1.6479,-1.0681,0.4272,-0.2777,9.7875,-0.2945,1.6479,-1.0681,0.4272,9.7831,0.1227,0.3365,0.0026,0.0109,-0.0022,0.7201,0.0111,-0.6938,0.0017,0.3759,-0.5437,-0.3942,-0.6384,9.7200,0.8400,0.9700,0.0000,0.0000,0.0000,0.4068,-0.5407,-0.3949,-0.6213,9.7500,0.4900,1.0200,0.0000,0.0000,0.0000,0.1413,-0.9562,-0.1730,-0.1889,3.9900,-1.9900,-8.7100,0.0000,0.0000,0.0000,0.6689,0.2967,-0.5813,0.3555,9.7400,-0.1400,1.5000,0.0000,0.0000,0.0000,0.5235,0.4495,-0.5130,0.5104,9.7400,-0.4800,0.6500,0.0000,0.0000,0.0000,0.0778,0.9657,-0.0955,0.2282,4.5000,1.0100,-8.6300,0.0000,0.0000,0.0000
69800,0,0,1,0.0000,4.4165,7.1191,3.5815,6.2842,-0.0055,-0.0201,-0.4395,1.8018,-0.2083,9.7875,-0.2562,1.4648,-0.9766,0.4578,-0.2083,9.7875,-0.2562,1.4648,-0.9766,0.4578,9.7470,0.1396,0.3252,0.0047,0.0060,-0.0015,0.7201,0.0111,-0.6938,0.0017,0.3759,-0.5437,-0.3942,-0.6384,9.7200,0.8400,0.9700,0.0000,0.0000,0.0000,0.4068,-0.5407,-0.3949,-0.6213,9.7400,0.5100,1.0000,0.0000,0.0000,0.0000,0.1413,-0.9562,-0.1730,-0.1889,3.9900,-1.9800,-8.7200,0.0000,0.0000,0.0000,0.6690,0.2967,-0.5813,0.3555,9.6800,-0.1400,1.5300,0.0000,0.0000,0.0000,0.5235,0.4495,-0.5130,0.5104,9.7400,-0.4500,0.6500,0.0000,0.0000,0.0000,0.0778,0.9657,-0.0955,0.2282,4.4900,1.0100,-8.6300,0.0000,0.0000,0.0000
69801,0,0,1,0.0000,4.4165,7.1191,3.5815,6.2842,0.0201,0.0110,-0.4395,1.8018,-0.2298,9.7827,-0.2514,1.6174,-0.9460,0.4272,-0.2298,9.7827,-0.2514,1.6174,-0.9460,0.4272,9.7470,0.1396,0.3252,0.0047,0.0060,-0.0015,0.7201,0.0111,-0.6938,0.0017,0.3759,-0.5437,-0.3942,-0.6384,9.7400,0.8700,0.9700,0.0000,0.0000,0.0000,0.4068,-0.5407,-0.3949,-0.6213,9.7400,0.5100,1.0000,0.0000,0.0000,0.0000,0.1413,-0.9562,-0.1730,-0.1889,4.0100,-1.9900,-8.7100,0.0000,0.0000,0.0000,0.6690,0.2966,-0.5813,0.3554,9.6800,-0.2000,1.4700,0.0000,0.0000,0.0000,0.5235,0.4495,-0.5130,0.5104,9.7400,-0.4500,0.6500,0.0000,0.0000,0.0000,0.0778,0.9657,-0.0955,0.2282,4.4800,1.0100,-8.6300,0.0000,0.0000,0.0000
69802,0,0,1,0.0000,4.4165,7.1191,3.5815,6.2842,-0.0055,0.0055,-0.4395,1.8018,-0.2418,9.7540,-0.2682,1.8005,-1.2207,0.3052,-0.2418,9.7540,-0.2682,1.8005,-1.2207,0.3052,9.7470,0.1396,0.3252,0.0047,0.0060,-0.0015,0.7201,0.0111,-0.6938,0.0017,0.3759,-0.5437,-0.3942,-0.6384,9.7200,0.8600,0.9900,0.0000,0.0000,0.0000,0.4068,-0.5407,-0.3949,-0.6213,9.7600,0.5100,1.0000,0.0000,0.0000,0.0000,0.1413,-0.9562,-0.1730,-0.1889,4.0100,-1.9700,-8.7100,0.0000,0.0000,0.0000,0.6690,0.2966,-0.5813,0.3554,9.7000,-0.1600,1.4400,0.0000,0.0000,0.0000,0.5235,0.4495,-0.5130,0.5104,9.7600,-0.4700,0.6600,0.0000,0.0000,0.0000,0.0778,0.9657,-0.0955,0.2282,4.4700,1.0300,-8.6300,0.0000,0.0000,0.0000
69803,0,0,1,0.0000,4.4165,7.1411,3.5815,6.3062,0.0037,0.0110,-0.4395,1.8018,-0.2514,9.7396,-0.2490,1.6785,-0.9460,0.1526,-0.2514,9.7396,-0.2490,1.6785,-0.9460,0.1526,9.7425,0.1331,0.2807,0.0024,0.0038,-0.0025,0.7201,0.0111,-0.6938,0.0017,0.3759,-0.5437,-0.3942,-0.6384,9.7300,0.8700,0.9700,0.0000,0.0000,0.0000,0.4068,-0.5407,-0.3949,-0.6213,9.7600,0.5200,1.0000,0.0000,0.0000,0.0000,0.1413,-0.9562,-0.1730,-0.1889,4.0200,-1.9600,-8.7000,0.0000,0.0000,0.0000,0.6690,0.2966,-0.5813,0.3554,9.7000,-0.1600,1.4400,0.0000,0.0000,0.0000,0.5235,0.4495,-0.5130,0.5104,9.7500,-0.4900,0.6600,0.0000,0.0000,0.0000,0.0778,0.9657,-0.0955,0.2282,4.4800,1.0300,-8.6400,0.0000,0.0000,0.0000
69804,0,0,1,0.0000,4.4165,7.1411,3.5815,6.3062,-0.0110,0.0275,-0.4395,1.8018,-0.2203,9.7444,-0.2490,1.7090,-1.0376,0.3357,-0.2203,9.7444,-0.2490,1.7090,-1.0376,0.3357,9.7425,0.1331,0.2807,0.0024,0.0038,-0.0025,0.7201,0.0111,-0.6938,0.0017,0.3759,-0.5437,-0.3941,-0.6384,9.7100,0.8800,0.9900,0.0000,0.0000,0.0000,0.4068,-0.5407,-0.3949,-0.6213,9.7500,0.5000,0.9700,0.0000,0.0000,0.0000,0.1413,-0.9562,-0.1730,-0.1889,4.0200,-1.9600,-8.7000,0.0000,0.0000,0.0000,0.6690,0.2966,-0.5813,0.3554,9.6900,-0.1100,1.5200,0.0000,0.0000,0.0000,0.5235,0.4496,-0.5129,0.5104,9.7600,-0.4900,0.6800,0.0000,0.0000,0.0000,0.0778,0.9657,-0.0955,0.2282,4.4800,1.0300,-8.6400,0.0000,0.0000,0.0000
69805,0,0,1,0.0000,4.4165,7.1411,3.5815,6.3062,-0.0073,0.0110,-0.4395,1.8018,-0.2155,9.7636,-0.2825,1.6785,-1.0986,0.2441,-0.2155,9.7636,-0.2825,1.6785,-1.0986,0.2441,9.7432,0.1502,0.3344,0.0018,0.0094,-0.0003,0.7201,0.0111,-0.6938,0.0017,0.3759,-0.5437,-0.3941,-0.6384,9.7100,0.8800,0.9900,0.0000,0.0000,0.0000,0.4068,-0.5407,-0.3949,-0.6213,9.7500,0.5000,0.9700,0.0000,0.0000,0.0000,0.1413,-0.9562,-0.1730,-0.1889,4.0200,-1.9800,-8.6900,0.0000,0.0000,0.0000,0.6690,0.2966,-0.5813,0.3554,9.6900,-0.1000,1.6100,0.0000,0.0000,0.0000,0.5235,0.4496,-0.5129,0.5104,9.7500,-0.4600,0.7000,0.0000,0.0000,0.0000,0.0779,0.9657,-0.0955,0.2282,4.4700,1.0500,-8.6500,0.0000,0.0000,0.0000
69806,0,0,1,0.0000,4.4165,7.1411,3.5815,6.3062,0.0110,-0.0092,-0.4395,1.8018,-0.2418,9.7731,-0.2418,1.6174,-1.0071,0.4883,-0.2418,9.7731,-0.2418,1.6174,-1.0071,0.4883,9.7432,0.1502,0.3344,0.0018,0.0094,-0.0003,0.7201,0.0111,-0.6938,0.0017,0.3759,-0.5437,-0.3941,-0.6384,9.7100,0.8800,0.9900,0.0000,0.0000,0.0000,0.4068,-0.5407,-0.3949,-0.6212,9.7400,0.5300,0.9800,0.0000,0.0000,0.0000,0.1413,-0.9562,-0.1730,-0.1889,4.0100,-1.9700,-8.7000,0.0000,0.0000,0.0000,0.6690,0.2966,-0.5813,0.3554,9.7300,-0.1000,1.6500,0.0000,0.0000,0.0000,0.5235,0.4496,-0.5129,0.5104,9.7500,-0.4600,0.7000,0.0000,0.0000,0.0000,0.0779,0.9657,-0.0955,0.2282,4.4800,1.0400,-8.6400,0.0000,0.0000,0.0000
69807,0,0,1,0.0000,4.4165,7.1411,3.5815,6.3062,0.0110,0.0146,-0.4395,1.8018,-0.1987,9.8186,-0.2538,1.7090,-0.9155,0.1526,-0.1987,9.8186,-0.2538,1.7090,-0.9155,0.1526,9.7432,0.1502,0.3344,0.0018,0.0094,-0.0003,0.7201,0.0111,-0.6938,0.0017,0.3759,-0.5437,-0.3941,-0.6384,9.7000,0.9100,0.9900,0.0000,0.0000,0.0000,0.4068,-0.5407,-0.3949,-0.6212,9.7400,0.5300,0.9800,0.0000,0.0000,0.0000,0.1413,-0.9562,-0.1730,-0.1889,4.0100,-1.9900,-8.7300,0.0000,0.0000,0.0000,0.6690,0.2967,-0.5813,0.3554,9.7200,-0.1300,1.6700,0.0000,0.0000,0.0000,0.5235,0.4496,-0.5129,0.5104,9.7600,-0.4800,0.7100,0.0000,0.0000,0.0000,0.0779,0.9657,-0.0955,0.2282,4.4700,1.0600,-8.6600,0.0000,0.0000,0.0000
69808,0,0,1,0.0000,4.4165,7.1411,3.5815,6.3062,0.0055,-0.0275,-0.4395,1.8018,-0.2634,9.7923,-0.2442,1.7395,-1.0376,0.3967,-0.2634,9.7923,-0.2442,1.7395,-1.0376,0.3967,9.7450,0.1298,0.2914,0.0110,0.0103,-0.0025,0.7201,0.0111,-0.6937,0.0017,0.3759,-0.5437,-0.3941,-0.6384,9.7100,0.9100,1.0000,0.0000,0.0000,0.0000,0.4068,-0.5408,-0.3949,-0.6212,9.7200,0.5400,1.0100,0.0000,0.0000,0.0000,0.1413,-0.9562,-0.1730,-0.1889,4.0200,-1.9800,-8.7100,0.0000,0.0000,0.0000,0.6690,0.2967,-0.5813,0.3554,9.7200,-0.1300,1.6700,0.0000,0.0000,0.0000,0.5235,0.4496,-0.5129,0.5104,9.7400,-0.4800,0.7000,0.0000,0.0000,0.0000,0.0779,0.9657,-0.0955,0.2282,4.4500,1.0500,-8.6400,0.0000,0.0000,0.0000
69809,0,0,1,0.0000,4.4165,7.1411,3.5815,6.3062,-0.0055,0.0183,-0.4395,1.8018,-0.1915,9.7923,-0.2658,1.7395,-0.9155,0.2136,-0.1915,9.7923,-0.2658,1.7395,-0.9155,0.2136,9.7450,0.1298,0.2914,0.0110,0.0103,-0.0025,0.7201,0.0111,-0.6937,0.0017,0.3759,-0.5437,-0.3941,-0.6384,9.7300,0.9200,0.9900,0.0000,0.0000,0.0000,0.4068,-0.5408,-0.3949,-0.6212,9.7300,0.5300,1.0200,0.0000,0.0000,0.0000,0.1413,-0.9562,-0.1730,-0.1889,4.0200,-1.9800,-8.7100,0.0000,0.0000,0.0000,0.6690,0.2967,-0.5813,0.3554,9.6700,-0.1600,1.6100,0.0000,0.0000,0.0000,0.5235,0.4496,-0.5129,0.5104,9.7400,-0.4900,0.7000,0.0000,0.0000,0.0000,0.0779,0.9657,-0.0955,0.2282,4.4500,1.0500,-8.6400,0.0000,0.0000,0.0000
69810,0,0,1,0.0000,4.4165,7.1411,3.5815,6.3062,0.0275,-0.0073,-0.4395,1.8018,-0.1556,9.8019,-0.2370,1.8005,-0.9155,0.3052,-0.1556,9.8019,-0.2370,1.8005,-0.9155,0.3052,9.7341,0.1278,0.3232,0.0015,0.0085,-0.0011,0.7201,0.0111,-0.6937,0.0017,0.3759,-0.5437,-0.3941,-0.6384,9.7300,0.9200,0.9900,0.0000,0.0000,0.0000,0.4068,-0.5408,-0.3949,-0.6212,9.7400,0.5400,1.0400,0.0000,0.0000,0.0000,0.1413,-0.9562,-0.1730,-0.1889,4.0100,-1.9800,-8.7000,0.0000,0.0000,0.0000,0.6690,0.2967,-0.5813,0.3554,9.6700,-0.1900,1.5300,0.0000,0.0000,0.0000,0.5235,0.4496,-0.5129,0.5104,9.7400,-0.4900,0.7000,0.0000,0.0000,0.0000,0.0779,0.9657,-0.0955,0.2282,4.4700,1.0400,-8.6500,0.0000,0.0000,0.0000
69811,0,0,1,0.0000,4.4165,7.1411,3.5815,6.3062,0.0000,0.0092,-0.4395,1.8018,-0.2155,9.6965,-0.2203,1.8311,-1.0071,0.0305,-0.2155,9.6965,-0.2203,1.8311,-1.0071,0.0305,9.7341,0.1278,0.3232,0.0015,0.0085,-0.0011,0.7201,0.0111,-0.6937,0.0017,0.3759,-0.5437,-0.3941,-0.6384,9.7100,0.9000,0.9900,0.0000,0.0000,0.0000,0.4068,-0.5408,-0.3949,-0.6212,9.7400,0.5400,1.0400,0.0000,0.0000,0.0000,0.1413,-0.9562,-0.1730,-0.1889,4.0200,-1.9700,-8.7100,0.0000,0.0000,0.0000,0.6690,0.2968,-0.5813,0.3554,9.6500,-0.1700,1.4300,0.0000,0.0000,0.0000,0.5235,0.4496,-0.5129,0.5104,9.7500,-0.4900,0.7100,0.0000,0.0000,0.0000,0.0779,0.9657,-0.0955,0.2282,4.4700,1.0400,-8.6500,0.0000,0.0000,0.0000
69812,0,0,1,0.0000,4.4165,7.1411,3.5815,6.3062,0.0055,-0.0165,-0.4395,1.8018,-0.1700,9.8019,-0.2705,1.8005,-0.8850,0.2441,-0.1700,9.8019,-0.2705,1.8005,-0.8850,0.2441,9.7341,0.1278,0.3232,0.0015,0.0085,-0.0011,0.7201,0.0111,-0.6937,0.0017,0.3759,-0.5437,-0.3941,-0.6384,9.6900,0.9100,0.9800,0.0000,0.0000,0.0000,0.4068,-0.5408,-0.3949,-0.6212,9.7100,0.5400,1.0300,0.0000,0.0000,0.0000,0.1413,-0.9562,-0.1730,-0.1889,4.0000,-1.9900,-8.7000,0.0000,0.0000,0.0000,0.6689,0.2968,-0.5813,0.3554,9.6400,-0.1900,1.4400,0.0000,0.0000,0.0000,0.5235,0.4496,-0.5129,0.5104,9.7500,-0.5100,0.7100,0.0000,0.0000,0.0000,0.0779,0.9657,-0.0955,0.2282,4.4900,1.0500,-8.6400,0.0000,0.0000,0.0000
69813,0,0,1,0.0000,4.4165,7.1411,3.5815,6.3062,0.0037,-0.0055,-0.4395,1.8018,-0.1891,9.8090,-0.2011,1.5564,-0.9460,0.2747,-0.1891,9.8090,-0.2011,1.5564,-0.9460,0.2747,9.7433,0.1266,0.3348,0.0020,0.0105,0.0035,0.7202,0.0111,-0.6937,0.0017,0.3759,-0.5437,-0.3941,-0.6384,9.6900,0.9000,0.9700,0.0000,0.0000,0.0000,0.4068,-0.5408,-0.3949,-0.6212,9.7200,0.5300,1.0400,0.0000,0.0000,0.0000,0.1413,-0.9562,-0.1730,-0.1889,4.0000,-1.9700,-8.7100,0.0000,0.0000,0.0000,0.6689,0.2968,-0.5813,0.3554,9.6400,-0.1900,1.4400,0.0000,0.0000,0.0000,0.5235,0.4496,-0.5129,0.5104,9.7300,-0.5200,0.7000,0.0000,0.0000,0.0000,0.0779,0.9657,-0.0955,0.2282,4.5000,1.0300,-8.6400,0.0000,0.0000,0.0000
69814,0,0,1,0.0000,4.4165,7.1411,3.5815,6.3062,0.0000,0.0073,-0.4395,1.8018,-0.2538,9.7923,-0.2562,1.7395,-0.9155,0.0000,-0.2538,9.7923,-0.2562,1.7395,-0.9155,0.0000,9.7433,0.1266,0.3348,0.0020,0.0105,0.0035,0.7202,0.0111,-0.6937,0.0017,0.3759,-0.5437,-0.3941,-0.6384,9.6900,0.9000,0.9700,0.0000,0.0000,0.0000,0.4068,-0.5408,-0.3949,-0.6212,9.7200,0.5200,1.0000,0.0000,0.0000,0.0000,0.1413,-0.9562,-0.1730,-0.1889,3.9900,-1.9900,-8.7100,0.0000,0.0000,0.0000,0.6689,0.2968,-0.5813,0.3554,9.6300,-0.2000,1.4300,0.0000,0.0000,0.0000,0.5235,0.4496,-0.5129,0.5104,9.7500,-0.5500,0.7000,0.0000,0.0000,0.0000,0.0779,0.9657,-0.0955,0.2282,4.4800,1.0400,-8.6400,0.0000,0.0000,0.0000
69815,0,0,1,0.0000,4.4165,7.1411,3.5815,6.3062,-0.0092,0.0000,-0.4395,1.8018,-0.1867,9.7540,-0.2538,1.6174,-0.8240,0.0000,-0.1867,9.7540,-0.2538,1.6174,-0.8240,0.0000,9.7634,0.1345,0.3493,0.0034,0.0132,0.0002,0.7202,0.0111,-0.6937,0.0017,0.3759,-0.5437,-0.3940,-0.6384,9.6700,0.9000,0.9700,0.0000,0.0000,0.0000,0.4068,-0.5408,-0.3949,-0.6212,9.7300,0.4800,1.0100,0.0000,0.0000,0.0000,0.1413,-0.9562,-0.1730,-0.1889,3.9900,-1.9900,-8.7100,0.0000,0.0000,0.0000,0.6689,0.2969,-0.5813,0.3554,9.6700,-0.2100,1.5100,0.0000,0.0000,0.0000,0.5235,0.4496,-0.5129,0.5104,9.7500,-0.5500,0.7000,0.0000,0.0000,0.0000,0.0779,0.9657,-0.0955,0.2282,4.4800,1.0400,-8.6400,0.0000,0.0000,0.0000
69816,0,0,1,0.0000,4.3945,7.1191,3.5815,6.3062,-0.0037,0.0092,-0.4395,1.8018,-0.1724,9.8162,-0.2346,1.8616,-1.0071,0.1526,-0.1724,9.8162,-0.2346,1.8616,-1.0071,0.1526,9.7634,0.1345,0.3493,0.0034,0.0132,0.0002,0.7202,0.0111,-0.6937,0.0017,0.3759,-0.5437,-0.3940,-0.6384,9.6700,0.8900,0.9700,0.0000,0.0000,0.0000,0.4068,-0.5408,-0.3949,-0.6212,9.7300,0.4800,1.0100,0.0000,0.0000,0.0000,0.1413,-0.9562,-0.1730,-0.1889,4.0100,-1.9900,-8.7000,0.0000,0.0000,0.0000,0.6689,0.2969,-0.5813,0.3554,9.6600,-0.1900,1.5500,0.0000,0.0000,0.0000,0.5235,0.4496,-0.5129,0.5104,9.7700,-0.5600,0.6900,0.0000,0.0000,0.0000,0.0779,0.9657,-0.0955,0.2282,4.4700,1.0400,-8.6500,0.0000,0.0000,0.0000
69817,0,0,1,0.0000,4.3945,7.1191,3.5815,6.3062,-0.0183,0.0201,-0.4395,1.8018,-0.1772,9.7875,-0.2107,1.7090,-1.0071,-0.0305,-0.1772,9.7875,-0.2107,1.7090,-1.0071,-0.0305,9.7634,0.1345,0.3493,0.0034,0.0132,0.0002,0.7202,0.0111,-0.6937,0.0017,0.3759,-0.5437,-0.3940,-0.6384,9.6900,0.9100,0.9800,0.0000,0.0000,0.0000,0.4068,-0.5408,-0.3949,-0.6212,9.7200,0.5000,1.0000,0.0000,0.0000,0.0000,0.1413,-0.9562,-0.1730,-0.1889,4.0200,-1.9800,-8.7100,0.0000,0.0000,0.0000,0.6689,0.2969,-0.5813,0.3554,9.6800,-0.2200,1.5000,0.0000,0.0000,0.0000,0.5235,0.4496,-0.5129,0.5104,9.7400,-0.5600,0.6900,0.0000,0.0000,0.0000,0.0779,0.9657,-0.0955,0.2282,4.4800,1.0200,-8.6500,0.0000,0.0000,0.0000
69818,0,0,1,0.0000,4.3945,7.1191,3.5815,6.3062,0.0092,-0.0165,-0.4395,1.8018,-0.2155,9.8067,-0.2514,1.5259,-0.6714,0.2747,-0.2155,9.8067,-0.2514,1.5259,-0.6714,0.2747,9.7767,0.1600,0.3727,0.0018,0.0089,0.0007,0.7202,0.0111,-0.6937,0.0017,0.3759,-0.5437,-0.3940,-0.6384,9.6900,0.9000,0.9700,0.0000,0.0000,0.0000,0.4069,-0.5408,-0.3949,-0.6212,9.7100,0.4700,1.0000,0.0000,0.0000,0.0000,0.1413,-0.9562,-0.1730,-0.1889,4.0200,-1.9800,-8.7100,0.0000,0.0000,0.0000,0.6689,0.2969,-0.5813,0.3554,9.6800,-0.2200,1.5000,0.0000,0.0000,0.0000,0.5235,0.4496,-0.5129,0.5104,9.7500,-0.5900,0.6800,0.0000,0.0000,0.0000,0.0779,0.9657,-0.0955,0.2282,4.4800,1.0300,-8.6500,0.0000,0.0000,0.0000
69819,0,0,1,0.0000,4.3945,7.1191,3.5815,6.3062,0.0092,0.0146,-0.4395,1.8018,-0.1580,9.7923,-0.2346,1.6785,-0.9766,-0.0610,-0.1580,9.7923,-0.2346,1.6785,-0.9766,-0.0610,9.7767,0.1600,0.3727,0.0018,0.0089,0.0007,0.7202,0.0111,-0.6937,0.0017,0.3759,-0.5437,-0.3940,-0.6384,9.6900,0.9000,0.9700,0.0000,0.0000,0.0000,0.4069,-0.5408,-0.3949,-0.6212,9.7200,0.4800,1.0100,0.0000,0.0000,0.0000,0.1413,-0.9562,-0.1730,-0.1889,4.0200,-1.9900,-8.7000,0.0000,0.0000,0.0000,0.6689,0.2969,-0.5813,0.3554,9.6700,-0.2300,1.5100,0.0000,0.0000,0.0000,0.5235,0.4496,-0.5129,0.5104,9.7400,-0.6000,0.6900,0.0000,0.0000,0.0000,0.0779,0.9657,-0.0955,0.2282,4.4900,1.0200,-8.6400,0.0000,0.0000,0.0000
69820,0,0,1,0.0000,4.3945,7.1191,3.5815,6.3062,0.0073,0.0146,-0.4395,1.8018,-0.1269,9.8067,-0.2682,1.6785,-1.1902,0.0610,-0.1269,9.8067,-0.2682,1.6785,-1.1902,0.0610,9.7767,0.1600,0.3727,0.0018,0.0089,0.0007,0.7202,0.0111,-0.6937,0.0017,0.3759,-0.5437,-0.3940,-0.6384,9.7200,0.9200,0.9600,0.0000,0.0000,0.0000,0.4069,-0.5408,-0.3949,-0.6212,9.7200,0.4600,0.9800,0.0000,0.0000,0.0000,0.1413,-0.9562,-0.1730,-0.1889,4.0100,-2.0000,-8.7000,0.0000,0.0000,0.0000,0.6689,0.2969,-0.5813,0.3554,9.7100,-0.2100,1.4900,0.0000,0.0000,0.0000,0.5235,0.4496,-0.5129,0.5104,9.7600,-0.6000,0.7200,0.0000,0.0000,0.0000,0.0779,0.9657,-0.0955,0.2282,4.4900,1.0300,-8.6350,0.0000,0.0000,0.0000
69821,0,0,1,0.0000,4.3945,7.1191,3.5815,6.3062,-0.0055,0.0146,-0.4395,1.8018,-0.1580,9.8354,-0.2538,1.5869,-0.8850,0.1831,-0.1580,9.8354,-0.2538,1.5869,-0.8850,0.1831,9.7990,0.1350,0.3912,0.0077,0.0160,-0.0014,0.7202,0.0112,-0.6936,0.0017,0.3759,-0.5437,-0.3940,-0.6384,9.6900,0.9100,0.9600,0.0000,0.0000,0.0000,0.4069,-0.5408,-0.3949,-0.6212,9.7200,0.4600,0.9800,0.0000,0.0000,0.0000,0.1413,-0.9562,-0.1730,-0.1889,4.0100,-2.0100,-8.7000,0.0000,0.0000,0.0000,0.6689,0.2970,-0.5813,0.3554,9.7200,-0.2200,1.4800,0.0000,0.0000,0.0000,0.5235,0.4496,-0.5129,0.5104,9.7600,-0.6000,0.7200,0.0000,0.0000,0.0000,0.0779,0.9657,-0.0955,0.2282,4.4900,1.0400,-8.6300,0.0000,0.0000,0.0000
69822,0,0,1,0.0000,4.3945,7.1191,3.5815,6.3062,0.0073,-0.0146,-0.4395,1.8018,-0.1796,9.8450,-0.2370,1.6479,-1.1292,0.0305,-0.1796,9.8450,-0.2370,1.6479,-1.1292,0.0305,9.7990,0.1350,0.3912,0.0077,0.0160,-0.0014,0.7202,0.0112,-0.6936,0.0017,0.3759,-0.5437,-0.3940,-0.6385,9.7000,0.9100,0.9500,0.0000,0.0000,0.0000,0.4069,-0.5408,-0.3949,-0.6212,9.7000,0.4500,0.9600,0.0000,0.0000,0.0000,0.1413,-0.9562,-0.1730,-0.1889,4.0100,-1.9800,-8.6800,0.0000,0.0000,0.0000,0.6689,0.2970,-0.5813,0.3555,9.6900,-0.2200,1.4600,0.0000,0.0000,0.0000,0.5235,0.4496,-0.5129,0.5104,9.7600,-0.5900,0.7100,0.0000,0.0000,0.0000,0.0779,0.9657,-0.0955,0.2282,4.4800,1.0300,-8.6300,0.0000,0.0000,0.0000
69823,0,0,1,0.0000,4.3945,7.1191,3.5815,6.3062,0.0037,-0.0201,-0.4395,1.8018,-0.1341,9.8090,-0.2203,1.5259,-1.0071,0.0610,-0.1341,9.8090,-0.2203,1.5259,-1.0071,0.0610,9.7905,0.1501,0.4409,0.0018,0.0147,0.0005,0.7202,0.0112,-0.6936,0.0017,0.3759,-0.5437,-0.3940,-0.6385,9.6900,0.9000,0.9400,0.0000,0.0000,0.0000,0.4069,-0.5408,-0.3949,-0.6211,9.7000,0.4700,0.9600,0.0000,0.0000,0.0000,0.1413,-0.9562,-0.1730,-0.1889,4.0100,-1.9800,-8.6800,0.0000,0.0000,0.0000,0.6689,0.2970,-0.5813,0.3555,9.6900,-0.2200,1.4600,0.0000,0.0000,0.0000,0.5235,0.4496,-0.5129,0.5104,9.7600,-0.5600,0.7000,0.0000,0.0000,0.0000,0.0779,0.9657,-0.0955,0.2282,4.4700,1.0300,-8.6500,0.0000,0.0000,0.0000
69824,0,0,1,0.0000,4.3945,7.1191,3.5815,6.3062,-0.0146,0.0055,-0.4395,1.8018,-0.1532,9.8497,-0.2394,1.3733,-1.1597,0.1221,-0.1532,9.8497,-0.2394,1.3733,-1.1597,0.1221,9.7905,0.1501,0.4409,0.0018,0.0147,0.0005,0.7202,0.0112,-0.6936,0.0017,0.3759,-0.5437,-0.3940,-0.6385,9.6900,0.9000,0.9400,0.0000,0.0000,0.0000,0.4069,-0.5408,-0.3949,-0.6211,9.7000,0.4500,0.9700,0.0000,0.0000,0.0000,0.1413,-0.9562,-0.1730,-0.1889,3.9900,-1.9700,-8.7000,0.0000,0.0000,0.0000,0.6689,0.2970,-0.5813,0.3555,9.6600,-0.2500,1.4300,0.0000,0.0000,0.0000,0.5235,0.4496,-0.5129,0.5104,9.7600,-0.5700,0.6800,0.0000,0.0000,0.0000,0.0779,0.9657,-0.0955,0.2282,4.4700,1.0200,-8.6500,0.0000,0.0000,0.0000
69825,0,0,1,0.0000,4.3945,7.1191,3.5815,6.3062,0.0128,0.0110,-0.4395,1.8018,-0.1413,9.7827,-0.2418,1.4954,-1.2207,0.1221,-0.1413,9.7827,-0.2418,1.4954,-1.2207,0.1221,9.7905,0.1501,0.4409,0.0018,0.0147,0.0005,0.7202,0.0112,-0.6936,0.0017,0.3759,-0.5437,-0.3940,-0.6385,9.7000,0.9000,0.9500,0.0000,0.0000,0.0000,0.4069,-0.5408,-0.3949,-0.6211,9.7200,0.4400,0.9300,0.0000,0.0000,0.0000,0.1413,-0.9562,-0.1730,-0.1889,4.0000,-1.9800,-8.7000,0.0000,0.0000,0.0000,0.6689,0.2970,-0.5813,0.3555,9.6900,-0.2300,1.3800,0.0000,0.0000,0.0000,0.5235,0.4496,-0.5129,0.5104,9.7600,-0.5800,0.6800,0.0000,0.0000,0.0000,0.0779,0.9657,-0.0955,0.2282,4.4700,1.0200,-8.6500,0.0000,0.0000,0.0000
69826,0,0,1,0.0000,4.3945,7.1191,3.5815,6.3062,-0.0092,0.0146,-0.4395,1.8018,-0.1748,9.7971,-0.2370,1.6479,-1.1292,-0.1831,-0.1748,9.7971,-0.2370,1.6479,-1.1292,-0.1831,9.8042,0.1149,0.3691,0.0057,0.0176,-0.0025,0.7203,0.0112,-0.6936,0.0017,0.3759,-0.5437,-0.3940,-0.6385,9.7000,0.9000,0.9400,0.0000,0.0000,0.0000,0.4069,-0.5408,-0.3949,-0.6211,9.7200,0.4400,0.9300,0.0000,0.0000,0.0000,0.1413,-0.9562,-0.1730,-0.1889,4.0000,-1.9700,-8.7000,0.0000,0.0000,0.0000,0.6689,0.2970,-0.5812,0.3555,9.6700,-0.2100,1.3800,0.0000,0.0000,0.0000,0.5235,0.4496,-0.5129,0.5104,9.7600,-0.5800,0.6800,0.0000,0.0000,0.0000,0.0779,0.9657,-0.0955,0.2282,4.4800,1.0500,-8.6500,0.0000,0.0000,0.0000
69827,0,0,1,0.0000,4.3945,7.1191,3.5815,6.3062,0.0220,-0.0073,-0.4395,1.8018,-0.1532,9.8833,-0.2370,1.4954,-0.9460,0.0305,-0.1532,9.8833,-0.2370,1.4954,-0.9460,0.0305,9.8042,0.1149,0.3691,0.0057,0.0176,-0.0025,0.7203,0.0112,-0.6936,0.0017,0.3759,-0.5438,-0.3940,-0.6385,9.7000,0.8900,0.9300,0.0000,0.0000,0.0000,0.4069,-0.5408,-0.3949,-0.6211,9.6900,0.4300,0.9200,0.0000,0.0000,0.0000,0.1413,-0.9562,-0.1730,-0.1889,4.0000,-1.9900,-8.7000,0.0000,0.0000,0.0000,0.6689,0.2970,-0.5812,0.3555,9.6700,-0.2400,1.3400,0.0000,0.0000,0.0000,0.5235,0.4496,-0.5129,0.5104,9.7600,-0.5600,0.6500,0.0000,0.0000,0.0000,0.0779,0.9657,-0.0955,0.2282,4.4700,1.0000,-8.6500,0.0000,0.0000,0.0000
69828,0,0,1,0.0000,4.3945,7.1191,3.5815,6.3062,0.0165,0.0183,-0.4395,1.8018,-0.1580,9.8737,-0.2322,1.2817,-1.1902,0.0610,-0.1580,9.8737,-0.2322,1.2817,-1.1902,0.0610,9.8264,0.1504,0.4327,0.0037,0.0192,0.0032,0.7203,0.0112,-0.6936,0.0017,0.3759,-0.5438,-0.3940,-0.6385,9.7100,0.8800,0.9400,0.0000,0.0000,0.0000,0.4069,-0.5408,-0.3950,-0.6211,9.7200,0.4100,0.9300,0.0000,0.0000,0.0000,0.1413,-0.9562,-0.1730,-0.1889,4.0000,-1.9700,-8.7000,0.0000,0.0000,0.0000,0.6689,0.2970,-0.5812,0.3555,9.6900,-0.2300,1.3300,0.0000,0.0000,0.0000,0.5235,0.4496,-0.5129,0.5104,9.7700,-0.5800,0.6500,0.0000,0.0000,0.0000,0.0779,0.9657,-0.0955,0.2282,4.4900,1.0300,-8.6400,0.0000,0.0000,0.0000
69829,0,0,1,0.0000,4.3945,7.1191,3.5815,6.3062,-0.0183,-0.0018,-0.4395,1.8018,-0.1628,9.7540,-0.2658,1.6785,-1.1292,0.0000,-0.1628,9.7540,-0.2658,1.6785,-1.1292,0.0000,9.8264,0.1504,0.4327,0.0037,0.0192,0.0032,0.7203,0.0112,-0.6936,0.0017,0.3759,-0.5438,-0.3940,-0.6385,9.7100,0.8800,0.9400,0.0000,0.0000,0.0000,0.4069,-0.5408,-0.3950,-0.6211,9.7100,0.4300,0.9500,0.0000,0.0000,0.0000,0.1413,-0.9562,-0.1730,-0.1889,4.0000,-1.9700,-8.7000,0.0000,0.0000,0.0000,0.6689,0.2970,-0.5812,0.3555,9.6900,-0.2300,1.3300,0.0000,0.0000,0.0000,0.5235,0.4496,-0.5129,0.5104,9.8100,-0.5800,0.6300,0.0000,0.0000,0.0000,0.0779,0.9657,-0.0955,0.2282,4.5000,1.0300,-8.6300,0.0000,0.0000,0.0000
69830,0,0,1,0.0000,4.3945,7.1191,3.5815,6.3062,0.0238,0.0092,-0.4395,1.8018,-0.1149,9.8952,-0.2370,1.3733,-1.2817,0.0000,-0.1149,9.8952,-0.2370,1.3733,-1.2817,0.0000,9.8264,0.1504,0.4327,0.0037,0.0192,0.0032,0.7203,0.0112,-0.6936,0.0017,0.3759,-0.5438,-0.3940,-0.6385,9.7000,0.8800,0.9200,0.0000,0.0000,0.0000,0.4069,-0.5408,-0.3950,-0.6211,9.7200,0.4200,0.9500,0.0000,0.0000,0.0000,0.1413,-0.9562,-0.1730,-0.1889,4.0100,-1.9900,-8.7100,0.0000,0.0000,0.0000,0.6689,0.2970,-0.5812,0.3555,9.6700,-0.2500,1.3400,0.0000,0.0000,0.0000,0.5235,0.4496,-0.5129,0.5104,9.8100,-0.5800,0.6300,0.0000,0.0000,0.0000,0.0779,0.9657,-0.0955,0.2282,4.5000,1.0300,-8.6300,0.0000,0.0000,0.0000
69831,0,0,1,0.0000,4.3945,7.1191,3.5815,6.3062,0.0201,-0.0165,-0.4395,1.8018,-0.1413,9.8521,-0.2370,1.3123,-1.1597,0.0916,-0.1413,9.8521,-0.2370,1.3123,-1.1597,0.0916,9.8040,0.1168,0.4306,0.0063,0.0152,0.0008,0.7203,0.0112,-0.6935,0.0017,0.3759,-0.5438,-0.3940,-0.6384,9.7100,0.8700,0.9300,0.0000,0.0000,0.0000,0.4069,-0.5408,-0.3950,-0.6211,9.7200,0.4200,0.9500,0.0000,0.0000,0.0000,0.1413,-0.9562,-0.1730,-0.1889,3.9900,-1.9800,-8.7100,0.0000,0.0000,0.0000,0.6689,0.2970,-0.5812,0.3555,9.7000,-0.2400,1.3700,0.0000,0.0000,0.0000,0.5236,0.4496,-0.5129,0.5104,9.7900,-0.6000,0.6500,0.0000,0.0000,0.0000,0.0779,0.9657,-0.0955,0.2282,4.4900,1.0300,-8.6400,0.0000,0.0000,0.0000
69832,0,0,1,0.0000,4.3945,7.1191,3.5815,6.3062,0.0073,-0.0201,-0.4395,1.8018,-0.1628,9.8067,-0.3208,1.4648,-1.3123,0.0610,-0.1628,9.8067,-0.3208,1.4648,-1.3123,0.0610,9.8040,0.1168,0.4306,0.0063,0.0152,0.0008,0.7203,0.0112,-0.6935,0.0017,0.3759,-0.5438,-0.3940,-0.6384,9.6900,0.8500,0.9400,0.0000,0.0000,0.0000,0.4069,-0.5408,-0.3950,-0.6211,9.7200,0.3900,0.9500,0.0000,0.0000,0.0000,0.1413,-0.9562,-0.1730,-0.1889,3.9900,-1.9700,-8.7100,0.0000,0.0000,0.0000,0.6689,0.2970,-0.5812,0.3555,9.7200,-0.2100,1.4100,0.0000,0.0000,0.0000,0.5236,0.4496,-0.5129,0.5104,9.7800,-0.5900,0.6500,0.0000,0.0000,0.0000,0.0779,0.9657,-0.0955,0.2282,4.4900,1.0100,-8.6500,0.0000,0.0000,0.0000
69833,0,0,1,0.0000,4.3945,7.1191,3.5815,6.3062,0.0055,-0.0110,-0.4395,1.8018,-0.1484,9.7971,-0.2083,1.4038,-1.4343,0.0610,-0.1484,9.7971,-0.2083,1.4038,-1.4343,0.0610,9.7931,0.1158,0.3865,0.0081,0.0118,-0.0028,0.7203,0.0112,-0.6935,0.0017,0.3759,-0.5438,-0.3940,-0.6384,9.7000,0.8500,0.9400,0.0000,0.0000,0.0000,0.4069,-0.5408,-0.3950,-0.6211,9.7200,0.4000,0.9300,0.0000,0.0000,0.0000,0.1413,-0.9562,-0.1730,-0.1889,4.0000,-1.9800,-8.7100,0.0000,0.0000,0.0000,0.6689,0.2970,-0.5812,0.3555,9.6900,-0.2000,1.4200,0.0000,0.0000,0.0000,0.5236,0.4496,-0.5128,0.5104,9.7700,-0.5600,0.6700,0.0000,0.0000,0.0000,0.0779,0.9657,-0.0955,0.2282,4.4700,1.0000,-8.6400,0.0000,0.0000,0.0000
69834,0,0,1,0.0000,4.3945,7.1191,3.5815,6.3062,0.0165,0.0201,-0.4395,1.8018,-0.1604,9.8114,-0.2442,1.1292,-1.2512,0.0610,-0.1604,9.8114,-0.2442,1.1292,-1.2512,0.0610,9.7931,0.1158,0.3865,0.0081,0.0118,-0.0028,0.7203,0.0112,-0.6935,0.0017,0.3759,-0.5438,-0.3940,-0.6384,9.7000,0.8500,0.9400,0.0000,0.0000,0.0000,0.4069,-0.5408,-0.3950,-0.6211,9.7200,0.4000,0.9200,0.0000,0.0000,0.0000,0.1413,-0.9562,-0.1730,-0.1889,4.0000,-1.9800,-8.7100,0.0000,0.0000,0.0000,0.6689,0.2970,-0.5812,0.3555,9.6900,-0.2000,1.4200,0.0000,0.0000,0.0000,0.5236,0.4496,-0.5128,0.5104,9.7500,-0.5700,0.6700,0.0000,0.0000,0.0000,0.0779,0.9657,-0.0955,0.2282,4.4800,1.0200,-8.6400,0.0000,0.0000,0.0000
69835,0,0,1,0.0000,4.3945,7.1191,3.5815,6.3062,-0.0128,0.0146,-0.4395,1.8018,-0.1700,9.7683,-0.2610,1.3733,-1.3428,0.1526,-0.1700,9.7683,-0.2610,1.3733,-1.3428,0.1526,9.7931,0.1158,0.3865,0.0081,0.0118,-0.0028,0.7203,0.0112,-0.6935,0.0017,0.3759,-0.5438,-0.3940,-0.6384,9.7000,0.8500,0.9500,0.0000,0.0000,0.0000,0.4069,-0.5408,-0.3950,-0.6211,9.7500,0.4100,0.9600,0.0000,0.0000,0.0000,0.1413,-0.9562,-0.1730,-0.1888,3.9700,-1.9800,-8.7200,0.0000,0.0000,0.0000,0.6689,0.2969,-0.5812,0.3555,9.7000,-0.1800,1.4200,0.0000,0.0000,0.0000,0.5236,0.4496,-0.5128,0.5104,9.7500,-0.5700,0.6700,0.0000,0.0000,0.0000,0.0779,0.9657,-0.0955,0.2282,4.4800,1.0200,-8.6400,0.0000,0.0000,0.0000
69836,0,0,1,0.0000,4.3945,7.1191,3.5815,6.3062,-0.0110,-0.0183,-0.4395,1.8018,-0.1820,9.7779,-0.2490,1.5564,-1.3428,0.2747,-0.1820,9.7779,-0.2490,1.5564,-1.3428,0.2747,9.8006,0.1086,0.3974,0.0012,0.0156,-0.0028,0.7204,0.0112,-0.6935,0.0017,0.3759,-0.5438,-0.3940,-0.6384,9.7100,0.8600,0.9500,0.0000,0.0000,0.0000,0.4069,-0.5408,-0.3950,-0.6211,9.7500,0.4100,0.9600,0.0000,0.0000,0.0000,0.1413,-0.9562,-0.1730,-0.1888,4.0000,-1.9900,-8.6900,0.0000,0.0000,0.0000,0.6689,0.2969,-0.5812,0.3554,9.7000,-0.1600,1.4200,0.0000,0.0000,0.0000,0.5236,0.4496,-0.5128,0.5104,9.7500,-0.5700,0.6700,0.0000,0.0000,0.0000,0.0779,0.9657,-0.0955,0.2282,4.4800,1.0100,-8.6400,0.0000,0.0000,0.0000
69837,0,0,1,0.0000,4.3945,7.1191,3.5815,6.3062,-0.0037,0.0055,-0.4395,1.8018,-0.1939,9.8019,-0.2083,1.2512,-1.1597,0.0916,-0.1939,9.8019,-0.2083,1.2512,-1.1597,0.0916,9.8006,0.1086,0.3974,0.0012,0.0156,-0.0028,0.7204,0.0112,-0.6935,0.0017,0.3759,-0.5438,-0.3940,-0.6384,9.7000,0.8600,0.9500,0.0000,0.0000,0.0000,0.4069,-0.5408,-0.3950,-0.6211,9.7300,0.4200,0.9700,0.0000,0.0000,0.0000,0.1413,-0.9562,-0.1730,-0.1888,3.9900,-2.0000,-8.7000,0.0000,0.0000,0.0000,0.6690,0.2969,-0.5812,0.3554,9.7000,-0.1500,1.3900,0.0000,0.0000,0.0000,0.5236,0.4496,-0.5128,0.5104,9.7500,-0.5800,0.7000,0.0000,0.0000,0.0000,0.0779,0.9657,-0.0955,0.2282,4.4900,1.0300,-8.6500,0.0000,0.0000,0.0000
69838,0,0,1,0.0000,4.3945,7.1191,3.5815,6.3062,0.0000,-0.0055,-0.4395,1.8018,-0.2227,9.8019,-0.2418,1.2207,-1.1292,0.0610,-0.2227,9.8019,-0.2418,1.2207,-1.1292,0.0610,9.7900,0.1472,0.4026,0.0007,0.0133,-0.0024,0.7204,0.0112,-0.6935,0.0017,0.3759,-0.5438,-0.3940,-0.6384,9.7200,0.8500,0.9600,0.0000,0.0000,0.0000,0.4069,-0.5408,-0.3950,-0.6211,9.7300,0.4000,0.9800,0.0000,0.0000,0.0000,0.1413,-0.9562,-0.1730,-0.1888,4.0000,-1.9900,-8.7000,0.0000,0.0000,0.0000,0.6690,0.2969,-0.5812,0.3554,9.7000,-0.1500,1.3900,0.0000,0.0000,0.0000,0.5236,0.4496,-0.5128,0.5104,9.7100,-0.5600,0.6900,0.0000,0.0000,0.0000,0.0779,0.9657,-0.0955,0.2282,4.4900,1.0200,-8.6400,0.0000,0.0000,0.0000
69839,0,0,1,0.0000,4.3945,7.1191,3.5815,6.3062,-0.0037,0.0073,-0.4395,1.8018,-0.1796,9.8258,-0.2466,1.3123,-1.2817,0.1526,-0.1796,9.8258,-0.2466,1.3123,-1.2817,0.1526,9.7900,0.1472,0.4026,0.0007,0.0133,-0.0024,0.7204,0.0112,-0.6935,0.0017,0.3759,-0.5438,-0.3940,-0.6384,9.7200,0.8500,0.9600,0.0000,0.0000,0.0000,0.4069,-0.5408,-0.3950,-0.6211,9.7400,0.4100,0.9600,0.0000,0.0000,0.0000,0.1413,-0.9562,-0.1730,-0.1888,4.0000,-1.9900,-8.7000,0.0000,0.0000,0.0000,0.6690,0.2968,-0.5813,0.3554,9.6700,-0.1800,1.3900,0.0000,0.0000,0.0000,0.5236,0.4496,-0.5128,0.5104,9.7200,-0.5500,0.6900,0.0000,0.0000,0.0000,0.0779,0.9657,-0.0955,0.2282,4.4800,1.0100,-8.6500,0.0000,0.0000,0.0000
69840,0,0,1,0.0000,4.3945,7.1191,3.5815,6.3062,-0.0092,-0.0165,-0.4395,1.8018,-0.2346,9.7731,-0.2801,1.2817,-1.3123,0.1831,-0.2346,9.7731,-0.2801,1.2817,-1.3123,0.1831,9.7900,0.1472,0.4026,0.0007,0.0133,-0.0024,0.7204,0.0112,-0.6935,0.0017,0.3759,-0.5438,-0.3940,-0.6384,9.6900,0.8500,0.9500,0.0000,0.0000,0.0000,0.4069,-0.5408,-0.3950,-0.6211,9.7300,0.4100,0.9700,0.0000,0.0000,0.0000,0.1413,-0.9562,-0.1730,-0.1888,3.9800,-1.9700,-8.7000,0.0000,0.0000,0.0000,0.6690,0.2968,-0.5813,0.3554,9.7100,-0.1400,1.3600,0.0000,0.0000,0.0000,0.5237,0.4496,-0.5128,0.5104,9.7300,-0.5400,0.6800,0.0000,0.0000,0.0000,0.0779,0.9657,-0.0955,0.2282,4.4800,1.0100,-8.6500,0.0000,0.0000,0.0000
69841,0,0,1,0.0000,4.3945,7.1191,3.5815,6.3062,-0.0128,0.0275,-0.4395,1.8018,-0.2179,9.7205,-0.2777,1.4954,-1.2817,0.0000,-0.2179,9.7205,-0.2777,1.4954,-1.2817,0.0000,9.7767,0.1220,0.3928,0.0057,0.0127,-0.0050,0.7204,0.0112,-0.6935,0.0017,0.3759,-0.5438,-0.3940,-0.6384,9.7000,0.8600,0.9500,0.0000,0.0000,0.0000,0.4069,-0.5408,-0.3950,-0.6211,9.7300,0.4100,0.9700,0.0000,0.0000,0.0000,0.1413,-0.9562,-0.1730,-0.1888,4.0100,-1.9800,-8.7100,0.0000,0.0000,0.0000,0.6690,0.2968,-0.5813,0.3554,9.6600,-0.1000,1.4400,0.0000,0.0000,0.0000,0.5237,0.4496,-0.5128,0.5104,9.7300,-0.5400,0.6800,0.0000,0.0000,0.0000,0.0779,0.9657,-0.0955,0.2282,4.4600,1.0200,-8.6500,0.0000,0.0000,0.0000
69842,0,0,1,0.0000,4.3945,7.1191,3.5815,6.3062,-0.0073,-0.0146,-0.4395,1.8018,-0.2035,9.7971,-0.2418,1.3123,-1.2512,0.2136,-0.2035,9.7971,-0.2418,1.3123,-1.2512,0.2136,9.7767,0.1220,0.3928,0.0057,0.0127,-0.0050,0.7204,0.0112,-0.6935,0.0017,0.3759,-0.5438,-0.3940,-0.6384,9.7000,0.8800,0.9600,0.0000,0.0000,0.0000,0.4069,-0.5408,-0.3949,-0.6211,9.7700,0.4400,1.0100,0.0000,0.0000,0.0000,0.1413,-0.9562,-0.1730,-0.1888,3.9900,-2.0000,-8.7200,0.0000,0.0000,0.0000,0.6690,0.2967,-0.5813,0.3553,9.6400,-0.1100,1.4400,0.0000,0.0000,0.0000,0.5237,0.4496,-0.5128,0.5104,9.7300,-0.5000,0.6900,0.0000,0.0000,0.0000,0.0779,0.9657,-0.0955,0.2282,4.4700,1.0100,-8.6500,0.0000,0.0000,0.0000
69843,0,0,1,0.0000,4.3945,7.1191,3.5815,6.3062,0.0037,-0.0146,-0.4395,1.8018,-0.1820,9.8138,-0.2514,1.4343,-1.1902,0.0610,-0.1820,9.8138,-0.2514,1.4343,-1.1902,0.0610,9.7944,0.1411,0.4556,0.0032,0.0129,-0.0053,0.7204,0.0112,-0.6934,0.0017,0.3759,-0.5438,-0.3940,-0.6384,9.7000,0.8800,0.9700,0.0000,0.0000,0.0000,0.4069,-0.5408,-0.3949,-0.6211,9.7900,0.4500,1.0200,0.0000,0.0000,0.0000,0.1413,-0.9562,-0.1730,-0.1888,4.0100,-2.0000,-8.7100,0.0000,0.0000,0.0000,0.6690,0.2967,-0.5813,0.3553,9.6400,-0.1100,1.4400,0.0000,0.0000,0.0000,0.5237,0.4496,-0.5128,0.5103,9.7300,-0.4700,0.7000,0.0000,0.0000,0.0000,0.0779,0.9657,-0.0955,0.2282,4.4700,1.0100,-8.6500,0.0000,0.0000,0.0000
69844,0,0,1,0.0000,4.3945,7.1191,3.5815,6.3062,-0.0128,0.0146,-0.4395,1.8018,-0.2155,9.8234,-0.2945,1.4038,-1.3428,0.0000,-0.2155,9.8234,-0.2945,1.4038,-1.3428,0.0000,9.7944,0.1411,0.4556,0.0032,0.0129,-0.0053,0.7204,0.0112,-0.6934,0.0017,0.3759,-0.5438,-0.3940,-0.6384,9.7000,0.8800,0.9700,0.0000,0.0000,0.0000,0.4069,-0.5408,-0.3949,-0.6211,9.7700,0.4600,1.0200,0.0000,0.0000,0.0000,0.1413,-0.9562,-0.1730,-0.1888,3.9800,-1.9900,-8.7100,0.0000,0.0000,0.0000,0.6690,0.2967,-0.5813,0.3553,9.6800,-0.1500,1.4300,0.0000,0.0000,0.0000,0.5237,0.4495,-0.5128,0.5103,9.7500,-0.4500,0.6800,0.0000,0.0000,0.0000,0.0779,0.9657,-0.0955,0.2282,4.4800,1.0300,-8.6500,0.0000,0.0000,0.0000
69845,0,0,1,0.0000,4.3945,7.1191,3.5815,6.3062,0.0110,-0.0146,-0.4395,1.8018,-0.2418,9.7827,-0.2562,1.2817,-1.4038,0.0305,-0.2418,9.7827,-0.2562,1.2817,-1.4038,0.0305,9.7536,0.1019,0.3838,0.0064,0.0109,-0.0013,0.7205,0.0113,-0.6934,0.0017,0.3759,-0.5438,-0.3940,-0.6384,9.7100,0.8900,0.9700,0.0000,0.0000,0.0000,0.4069,-0.5408,-0.3949,-0.6212,9.7800,0.5000,1.0200,0.0000,0.0000,0.0000,0.1413,-0.9562,-0.1730,-0.1888,3.9800,-1.9900,-8.7100,0.0000,0.0000,0.0000,0.6691,0.2967,-0.5813,0.3553,9.7000,-0.1300,1.4200,0.0000,0.0000,0.0000,0.5237,0.4495,-0.5128,0.5103,9.7600,-0.4500,0.6800,0.0000,0.0000,0.0000,0.0779,0.9657,-0.0955,0.2282,4.4800,1.0300,-8.6500,0.0000,0.0000,0.0000
69846,0,0,1,0.0000,4.3945,7.1191,3.5815,6.3062,0.0018,-0.0238,-0.4395,1.8018,-0.2059,9.7875,-0.3041,1.3123,-1.0681,0.1831,-0.2059,9.7875,-0.3041,1.3123,-1.0681,0.1831,9.7536,0.1019,0.3838,0.0064,0.0109,-0.0013,0.7205,0.0113,-0.6934,0.0017,0.3759,-0.5439,-0.3940,-0.6384,9.7000,0.8900,0.9800,0.0000,0.0000,0.0000,0.4069,-0.5408,-0.3949,-0.6212,9.7800,0.5000,1.0200,0.0000,0.0000,0.0000,0.1413,-0.9562,-0.1730,-0.1888,4.0000,-1.9800,-8.7100,0.0000,0.0000,0.0000,0.6691,0.2966,-0.5813,0.3553,9.6400,-0.1100,1.4500,0.0000,0.0000,0.0000,0.5237,0.4495,-0.5128,0.5103,9.7600,-0.4500,0.6800,0.0000,0.0000,0.0000,0.0779,0.9657,-0.0955,0.2282,4.4700,1.0200,-8.6400,0.0000,0.0000,0.0000
69847,0,0,1,0.0000,4.3945,7.1191,3.5815,6.3062,0.0110,0.0000,-0.4395,1.8018,-0.1963,9.7923,-0.2849,1.6174,-1.4343,0.0610,-0.1963,9.7923,-0.2849,1.6174,-1.4343,0.0610,9.7536,0.1019,0.3838,0.0064,0.0109,-0.0013,0.7205,0.0113,-0.6934,0.0017,0.3759,-0.5439,-0.3940,-0.6384,9.7200,0.9100,0.9900,0.0000,0.0000,0.0000,0.4069,-0.5408,-0.3949,-0.6212,9.7800,0.5100,1.0200,0.0000,0.0000,0.0000,0.1413,-0.9562,-0.1730,-0.1888,4.0100,-1.9600,-8.7000,0.0000,0.0000,0.0000,0.6691,0.2966,-0.5813,0.3553,9.6800,-0.1300,1.4800,0.0000,0.0000,0.0000,0.5237,0.4495,-0.5129,0.5103,9.7500,-0.4000,0.6800,0.0000,0.0000,0.0000,0.0779,0.9657,-0.0955,0.2282,4.4800,1.0300,-8.6600,0.0000,0.0000,0.0000
69848,0,0,1,0.0000,4.3945,7.1191,3.5815,6.3062,-0.0055,0.0037,-0.4395,1.8018,-0.2849,9.7636,-0.2705,1.4038,-1.2512,0.0305,-0.2849,9.7636,-0.2705,1.4038,-1.2512,0.0305,9.7786,0.1104,0.3902,0.0063,0.0087,-0.0000,0.7205,0.0113,-0.6934,0.0017,0.3759,-0.5439,-0.3940,-0.6384,9.7200,0.9300,0.9900,0.0000,0.0000,0.0000,0.4069,-0.5408,-0.3949,-0.6212,9.7800,0.5300,0.9900,0.0000,0.0000,0.0000,0.1413,-0.9562,-0.1730,-0.1888,4.0100,-1.9600,-8.7000,0.0000,0.0000,0.0000,0.6691,0.2966,-0.5813,0.3553,9.6800,-0.1300,1.4800,0.0000,0.0000,0.0000,0.5238,0.4495,-0.5129,0.5103,9.7500,-0.4200,0.7000,0.0000,0.0000,0.0000,0.0779,0.9657,-0.0955,0.2282,4.4700,1.0200,-8.6500,0.0000,0.0000,0.0000
69849,0,0,1,0.0000,4.3945,7.1191,3.5815,6.3062,0.0110,0.0110,-0.4395,1.8018,-0.2107,9.8210,-0.1987,1.2512,-1.2817,-0.1221,-0.2107,9.8210,-0.1987,1.2512,-1.2817,-0.1221,9.7786,0.1104,0.3902,0.0063,0.0087,-0.0000,0.7205,0.0113,-0.6934,0.0017,0.3759,-0.5439,-0.3940,-0.6384,9.7200,0.9300,0.9900,0.0000,0.0000,0.0000,0.4069,-0.5408,-0.3949,-0.6212,9.7600,0.5700,1.0100,0.0000,0.0000,0.0000,0.1413,-0.9562,-0.1730,-0.1888,4.0200,-1.9800,-8.7100,0.0000,0.0000,0.0000,0.6691,0.2966,-0.5813,0.3553,9.6800,-0.1000,1.4900,0.0000,0.0000,0.0000,0.5238,0.4495,-0.5129,0.5103,9.7500,-0.4100,0.7000,0.0000,0.0000,0.0000,0.0779,0.9657,-0.0955,0.2282,4.4600,1.0400,-8.6400,0.0000,0.0000,0.0000
69850,0,0,1,0.0000,4.3945,7.1191,3.5815,6.3062,0.0110,0.0110,-0.4395,1.8018,-0.2705,9.7444,-0.2921,1.4648,-1.2817,-0.0916,-0.2705,9.7444,-0.2921,1.4648,-1.2817,-0.0916,9.7584,0.1388,0.3745,0.0028,0.0087,-0.0016,0.7205,0.0113,-0.6934,0.0017,0.3759,-0.5439,-0.3940,-0.6384,9.7200,0.9600,0.9900,0.0000,0.0000,0.0000,0.4069,-0.5408,-0.3949,-0.6212,9.7600,0.5700,1.0100,0.0000,0.0000,0.0000,0.1413,-0.9562,-0.1730,-0.1888,4.0000,-1.9900,-8.7000,0.0000,0.0000,0.0000,0.6691,0.2966,-0.5813,0.3552,9.6500,-0.0900,1.4900,0.0000,0.0000,0.0000,0.5238,0.4495,-0.5129,0.5103,9.7500,-0.4100,0.7000,0.0000,0.0000,0.0000,0.0779,0.9657,-0.0955,0.2282,4.4600,1.0400,-8.6400,0.0000,0.0000,0.0000
69851,0,0,1,0.0000,4.3945,7.1191,3.5815,6.3062,0.0146,-0.0220,-0.4395,1.8018,-0.2538,9.7013,-0.2442,1.6479,-1.2817,0.0000,-0.2538,9.7013,-0.2442,1.6479,-1.2817,0.0000,9.7584,0.1388,0.3745,0.0028,0.0087,-0.0016,0.7205,0.0113,-0.6934,0.0017,0.3759,-0.5439,-0.3939,-0.6384,9.7200,0.9500,1.0000,0.0000,0.0000,0.0000,0.4069,-0.5408,-0.3949,-0.6212,9.7400,0.5800,1.0400,0.0000,0.0000,0.0000,0.1413,-0.9562,-0.1730,-0.1888,4.0000,-1.9800,-8.7000,0.0000,0.0000,0.0000,0.6691,0.2966,-0.5813,0.3552,9.6500,-0.0800,1.4900,0.0000,0.0000,0.0000,0.5238,0.4495,-0.5129,0.5103,9.7500,-0.3900,0.7100,0.0000,0.0000,0.0000,0.0779,0.9657,-0.0955,0.2282,4.4700,1.0600,-8.6300,0.0000,0.0000,0.0000
69852,0,0,1,0.0000,4.3945,7.1191,3.5815,6.3062,-0.0110,0.0055,-0.4395,1.8018,-0.2131,9.8090,-0.2155,1.2817,-0.9766,-0.1221,-0.2131,9.8090,-0.2155,1.2817,-0.9766,-0.1221,9.7584,0.1388,0.3745,0.0028,0.0087,-0.0016,0.7205,0.0113,-0.6934,0.0017,0.3759,-0.5439,-0.3939,-0.6384,9.7100,0.9500,0.9900,0.0000,0.0000,0.0000,0.4068,-0.5408,-0.3949,-0.6212,9.7600,0.6100,1.0600,0.0000,0.0000,0.0000,0.1413,-0.9562,-0.1730,-0.1888,4.0200,-1.9800,-8.7100,0.0000,0.0000,0.0000,0.6691,0.2966,-0.5813,0.3552,9.6300,-0.1200,1.4700,0.0000,0.0000,0.0000,0.5238,0.4495,-0.5129,0.5103,9.7400,-0.3800,0.7300,0.0000,0.0000,0.0000,0.0779,0.9657,-0.0955,0.2282,4.4900,1.0500,-8.6300,0.0000,0.0000,0.0000
69853,0,0,1,0.0000,4.3945,7.1191,3.5815,6.3062,0.0073,-0.0220,-0.4395,1.8018,-0.2179,9.8138,-0.2394,1.4343,-1.1597,0.0000,-0.2179,9.8138,-0.2394,1.4343,-1.1597,0.0000,9.7550,0.1239,0.3948,-0.0030,0.0084,-0.0016,0.7205,0.0113,-0.6934,0.0017,0.3759,-0.5439,-0.3939,-0.6384,9.7300,0.9600,0.9900,0.0000,0.0000,0.0000,0.4068,-0.5408,-0.3949,-0.6212,9.7500,0.5900,1.0600,0.0000,0.0000,0.0000,0.1413,-0.9562,-0.1730,-0.1888,4.0200,-1.9800,-8.7100,0.0000,0.0000,0.0000,0.6691,0.2966,-0.5813,0.3552,9.6300,-0.1200,1.4700,0.0000,0.0000,0.0000,0.5238,0.4495,-0.5129,0.5103,9.7400,-0.3800,0.7300,0.0000,0.0000,0.0000,0.0779,0.9657,-0.0955,0.2282,4.4800,1.0500,-8.6500,0.0000,0.0000,0.0000
69854,0,0,1,0.0000,4.3945,7.1191,3.5815,6.3062,-0.0073,0.0055,-0.4395,1.8018,-0.2442,9.7540,-0.2873,1.4954,-1.2817,-0.1221,-0.2442,9.7540,-0.2873,1.4954,-1.2817,-0.1221,9.7550,0.1239,0.3948,-0.0030,0.0084,-0.0016,0.7205,0.0113,-0.6934,0.0017,0.3759,-0.5439,-0.3939,-0.6384,9.7300,0.9600,0.9900,0.0000,0.0000,0.0000,0.4068,-0.5408,-0.3949,-0.6212,9.7300,0.5900,1.0300,0.0000,0.0000,0.0000,0.1413,-0.9562,-0.1730,-0.1888,4.0200,-1.9800,-8.7100,0.0000,0.0000,0.0000,0.6692,0.2966,-0.5813,0.3553,9.6700,-0.1500,1.4200,0.0000,0.0000,0.0000,0.5238,0.4495,-0.5129,0.5103,9.7400,-0.4000,0.7400,0.0000,0.0000,0.0000,0.0779,0.9657,-0.0955,0.2282,4.5100,1.0300,-8.6400,0.0000,0.0000,0.0000
69855,0,0,1,0.0000,4.3945,7.1191,3.5815,6.3062,0.0146,-0.0110,-0.4395,1.8018,-0.2059,9.7779,-0.2538,1.4343,-1.1902,-0.2136,-0.2059,9.7779,-0.2538,1.4343,-1.1902,-0.2136,9.7465,0.1316,0.3302,0.0049,0.0101,-0.0020,0.7205,0.0113,-0.6934,0.0017,0.3759,-0.5439,-0.3939,-0.6384,9.7100,0.9600,1.0000,0.0000,0.0000,0.0000,0.4068,-0.5408,-0.3949,-0.6212,9.7200,0.6000,1.0400,0.0000,0.0000,0.0000,0.1413,-0.9562,-0.1730,-0.1888,4.0200,-1.9700,-8.7100,0.0000,0.0000,0.0000,0.6692,0.2966,-0.5813,0.3552,9.6900,-0.1100,1.4700,0.0000,0.0000,0.0000,0.5238,0.4495,-0.5129,0.5103,9.7400,-0.4000,0.7400,0.0000,0.0000,0.0000,0.0779,0.9657,-0.0955,0.2282,4.5100,1.0300,-8.6400,0.0000,0.0000,0.0000
69856,0,0,1,0.0000,4.3945,7.1191,3.5815,6.3062,0.0275,-0.0238,-0.4395,1.8018,-0.2945,9.7396,-0.2322,1.4038,-0.9460,-0.2747,-0.2945,9.7396,-0.2322,1.4038,-0.9460,-0.2747,9.7465,0.1316,0.3302,0.0049,0.0101,-0.0020,0.7205,0.0113,-0.6934,0.0017,0.3758,-0.5439,-0.3939,-0.6384,9.7000,0.9500,0.9900,0.0000,0.0000,0.0000,0.4068,-0.5408,-0.3949,-0.6212,9.7200,0.6000,1.0400,0.0000,0.0000,0.0000,0.1413,-0.9562,-0.1730,-0.1889,3.9900,-1.9800,-8.7100,0.0000,0.0000,0.0000,0.6692,0.2966,-0.5812,0.3552,9.6600,-0.1000,1.5600,0.0000,0.0000,0.0000,0.5238,0.4495,-0.5129,0.5102,9.7400,-0.4300,0.7200,0.0000,0.0000,0.0000,0.0779,0.9657,-0.0955,0.2282,4.5000,1.0300,-8.6400,0.0000,0.0000,0.0000
69857,0,0,1,0.0000,4.3945,7.1411,3.5815,6.3281,-0.0037,-0.0128,-0.4395,1.8018,-0.2227,9.7683,-0.2538,1.5869,-0.9766,-0.1831,-0.2227,9.7683,-0.2538,1.5869,-0.9766,-0.1831,9.7465,0.1316,0.3302,0.0049,0.0101,-0.0020,0.7205,0.0113,-0.6934,0.0017,0.3758,-0.5439,-0.3939,-0.6384,9.6900,0.9500,0.9700,0.0000,0.0000,0.0000,0.4068,-0.5409,-0.3949,-0.6212,9.7400,0.6000,1.0400,0.0000,0.0000,0.0000,0.1413,-0.9562,-0.1730,-0.1888,4.0000,-1.9800,-8.7000,0.0000,0.0000,0.0000,0.6692,0.2965,-0.5812,0.3552,9.7000,-0.0800,1.6400,0.0000,0.0000,0.0000,0.5238,0.4495,-0.5129,0.5102,9.7300,-0.4300,0.7200,0.0000,0.0000,0.0000,0.0779,0.9657,-0.0955,0.2282,4.4800,1.0100,-8.6400,0.0000,0.0000,0.0000
69858,0,0,1,0.0000,4.3945,7.1411,3.5815,6.3281,-0.0037,0.0018,-0.4395,1.8018,-0.2227,9.7875,-0.2035,1.5564,-1.2817,-0.2136,-0.2227,9.7875,-0.2035,1.5564,-1.2817,-0.2136,9.7762,0.1471,0.3788,-0.0016,0.0067,-0.0008,0.7205,0.0113,-0.6933,0.0017,0.3758,-0.5439,-0.3939,-0.6384,9.6900,0.9500,0.9700,0.0000,0.0000,0.0000,0.4068,-0.5409,-0.3949,-0.6212,9.7200,0.5900,1.0200,0.0000,0.0000,0.0000,0.1413,-0.9562,-0.1730,-0.1889,4.0100,-1.9700,-8.6800,0.0000,0.0000,0.0000,0.6692,0.2965,-0.5812,0.3552,9.6800,-0.1000,1.6300,0.0000,0.0000,0.0000,0.5238,0.4495,-0.5129,0.5102,9.7300,-0.4200,0.7300,0.0000,0.0000,0.0000,0.0779,0.9657,-0.0955,0.2282,4.4700,1.0500,-8.6500,0.0000,0.0000,0.0000
69859,0,0,1,0.0000,4.3945,7.1411,3.5815,6.3281,0.0037,0.0165,-0.4395,1.8018,-0.2131,9.8138,-0.2394,1.3123,-1.0681,-0.4272,-0.2131,9.8138,-0.2394,1.3123,-1.0681,-0.4272,9.7762,0.1471,0.3788,-0.0016,0.0067,-0.0008,0.7205,0.0113,-0.6933,0.0017,0.3758,-0.5439,-0.3939,-0.6384,9.6900,0.9500,0.9700,0.0000,0.0000,0.0000,0.4068,-0.5409,-0.3949,-0.6212,9.7000,0.5700,1.0100,0.0000,0.0000,0.0000,0.1413,-0.9562,-0.1730,-0.1889,4.0100,-1.9700,-8.6800,0.0000,0.0000,0.0000,0.6692,0.2965,-0.5812,0.3552,9.6800,-0.1000,1.6300,0.0000,0.0000,0.0000,0.5238,0.4495,-0.5129,0.5102,9.7400,-0.4400,0.7500,0.0000,0.0000,0.0000,0.0779,0.9657,-0.0955,0.2282,4.4800,1.0300,-8.6300,0.0000,0.0000,0.0000
69860,0,0,1,0.0000,4.3945,7.1411,3.5815,6.3281,-0.0055,-0.0055,-0.4395,1.8018,-0.2179,9.7875,-0.2538,1.5259,-1.2207,-0.2747,-0.2179,9.7875,-0.2538,1.5259,-1.2207,-0.2747,9.7676,0.1556,0.3367,-0.0044,0.0039,-0.0035,0.7205,0.0113,-0.6933,0.0017,0.3758,-0.5439,-0.3939,-0.6384,9.6800,0.9400,0.9600,0.0000,0.0000,0.0000,0.4068,-0.5409,-0.3949,-0.6212,9.6900,0.5700,0.9600,0.0000,0.0000,0.0000,0.1413,-0.9562,-0.1730,-0.1889,4.0300,-1.9900,-8.6900,0.0000,0.0000,0.0000,0.6692,0.2965,-0.5812,0.3552,9.7000,-0.0900,1.6000,0.0000,0.0000,0.0000,0.5238,0.4495,-0.5129,0.5102,9.7400,-0.4300,0.7300,0.0000,0.0000,0.0000,0.0779,0.9657,-0.0955,0.2282,4.4800,1.0300,-8.6300,0.0000,0.0000,0.0000
69861,0,0,1,0.0000,4.3945,7.1411,3.5815,6.3281,0.0018,-0.0220,-0.4395,1.8018,-0.1724,9.7300,-0.2227,1.3428,-0.8850,-0.2441,-0.1724,9.7300,-0.2227,1.3428,-0.8850,-0.2441,9.7676,0.1556,0.3367,-0.0044,0.0039,-0.0035,0.7205,0.0113,-0.6933,0.0017,0.3758,-0.5439,-0.3939,-0.6384,9.6700,0.9400,0.9600,0.0000,0.0000,0.0000,0.4068,-0.5409,-0.3949,-0.6212,9.6900,0.5700,0.9600,0.0000,0.0000,0.0000,0.1413,-0.9562,-0.1730,-0.1888,4.0200,-1.9800,-8.7000,0.0000,0.0000,0.0000,0.6692,0.2965,-0.5812,0.3552,9.6700,-0.0800,1.5600,0.0000,0.0000,0.0000,0.5238,0.4495,-0.5129,0.5102,9.7400,-0.4300,0.7300,0.0000,0.0000,0.0000,0.0779,0.9657,-0.0955,0.2282,4.4600,1.0500,-8.6400,0.0000,0.0000,0.0000
69862,0,0,1,0.0000,4.3945,7.1411,3.5815,6.3281,-0.0073,-0.0165,-0.4395,1.8018,-0.2131,9.7683,-0.2729,1.5259,-1.0681,-0.4883,-0.2131,9.7683,-0.2729,1.5259,-1.0681,-0.4883,9.7676,0.1556,0.3367,-0.0044,0.0039,-0.0035,0.7205,0.0113,-0.6933,0.0017,0.3758,-0.5439,-0.3939,-0.6384,9.6800,0.9500,0.9600,0.0000,0.0000,0.0000,0.4068,-0.5409,-0.3949,-0.6211,9.6800,0.5700,0.9300,0.0000,0.0000,0.0000,0.1413,-0.9562,-0.1730,-0.1888,4.0200,-1.9600,-8.6900,0.0000,0.0000,0.0000,0.6692,0.2965,-0.5813,0.3552,9.6700,-0.1100,1.4900,0.0000,0.0000,0.0000,0.5238,0.4495,-0.5129,0.5102,9.7400,-0.4200,0.7500,0.0000,0.0000,0.0000,0.0779,0.9657,-0.0955,0.2282,4.4700,1.0500,-8.6300,0.0000,0.0000,0.0000
69863,0,0,1,0.0000,4.3945,7.1411,3.5815,6.3281,-0.0110,0.0092,-0.4395,1.8018,-0.1915,9.7683,-0.2562,1.4343,-0.8850,-0.3967,-0.1915,9.7683,-0.2562,1.4343,-0.8850,-0.3967,9.7753,0.1525,0.3513,0.0006,0.0102,0.0008,0.7205,0.0113,-0.6933,0.0017,0.3758,-0.5439,-0.3939,-0.6384,9.6800,0.9400,0.9400,0.0000,0.0000,0.0000,0.4068,-0.5409,-0.3949,-0.6211,9.6900,0.5500,0.8900,0.0000,0.0000,0.0000,0.1413,-0.9562,-0.1730,-0.1888,3.9800,-1.9400,-8.7300,0.0000,0.0000,0.0000,0.6692,0.2965,-0.5813,0.3552,9.7000,-0.1200,1.4900,0.0000,0.0000,0.0000,0.5238,0.4495,-0.5129,0.5102,9.7500,-0.4300,0.7300,0.0000,0.0000,0.0000,0.0779,0.9657,-0.0955,0.2282,4.4900,1.0400,-8.6200,0.0000,0.0000,0.0000
69864,0,0,1,0.0000,4.3945,7.1411,3.5815,6.3281,0.0146,-0.0110,-0.4395,1.8018,-0.1652,9.8114,-0.2514,1.4648,-0.7629,0.0000,-0.1652,9.8114,-0.2514,1.4648,-0.7629,0.0000,9.7753,0.1525,0.3513,0.0006,0.0102,0.0008,0.7205,0.0113,-0.6933,0.0017,0.3758,-0.5439,-0.3939,-0.6384,9.6800,0.9400,0.9400,0.0000,0.0000,0.0000,0.4069,-0.5409,-0.3949,-0.6211,9.7000,0.5100,0.8900,0.0000,0.0000,0.0000,0.1413,-0.9562,-0.1730,-0.1888,3.9800,-1.9400,-8.7300,0.0000,0.0000,0.0000,0.6692,0.2965,-0.5813,0.3552,9.7000,-0.1200,1.4900,0.0000,0.0000,0.0000,0.5238,0.4495,-0.5129,0.5102,9.7500,-0.4400,0.7100,0.0000,0.0000,0.0000,0.0779,0.9657,-0.0955,0.2282,4.4700,1.0400,-8.6200,0.0000,0.0000,0.0000
69865,0,0,1,0.0000,4.3945,7.1411,3.5815,6.3281,-0.0238,0.0055,-0.4395,1.8018,-0.1867,9.7396,-0.2873,1.6174,-0.8850,-0.2747,-0.1867,9.7396,-0.2873,1.6174,-0.8850,-0.2747,9.7656,0.1387,0.3564,-0.0022,0.0077,-0.0014,0.7206,0.0113,-0.6933,0.0017,0.3758,-0.5439,-0.3939,-0.6384,9.6500,0.9500,0.9200,0.0000,0.0000,0.0000,0.4069,-0.5409,-0.3949,-0.6211,9.7000,0.4800,0.9200,0.0000,0.0000,0.0000,0.1413,-0.9562,-0.1730,-0.1888,4.0100,-1.9500,-8.7200,0.0000,0.0000,0.0000,0.6693,0.2965,-0.5813,0.3551,9.6600,-0.1100,1.4500,0.0000,0.0000,0.0000,0.5238,0.4495,-0.5129,0.5102,9.7300,-0.4500,0.6700,0.0000,0.0000,0.0000,0.0779,0.9657,-0.0955,0.2282,4.4700,1.0400,-8.6200,0.0000,0.0000,0.0000
69866,0,0,1,0.0000,4.3945,7.1411,3.5815,6.3281,-0.0037,-0.0110,-0.4395,1.8018,-0.2059,9.7300,-0.2825,1.5564,-0.8850,-0.4272,-0.2059,9.7300,-0.2825,1.5564,-0.8850,-0.4272,9.7656,0.1387,0.3564,-0.0022,0.0077,-0.0014,0.7206,0.0113,-0.6933,0.0017,0.3758,-0.5439,-0.3939,-0.6384,9.6700,0.9300,0.9100,0.0000,0.0000,0.0000,0.4069,-0.5409,-0.3949,-0.6211,9.7000,0.4800,0.9200,0.0000,0.0000,0.0000,0.1413,-0.9562,-0.1730,-0.1888,4.0100,-1.9500,-8.7000,0.0000,0.0000,0.0000,0.6693,0.2965,-0.5813,0.3551,9.6800,-0.1000,1.4700,0.0000,0.0000,0.0000,0.5238,0.4495,-0.5129,0.5102,9.7300,-0.4500,0.6700,0.0000,0.0000,0.0000,0.0779,0.9657,-0.0955,0.2282,4.4700,1.0300,-8.6400,0.0000,0.0000,0.0000
69867,0,0,1,0.0000,4.3945,7.1411,3.5815,6.3281,0.0110,-0.0275,-0.4395,1.8018,-0.1700,9.8569,-0.2179,1.5869,-0.7019,-0.2441,-0.1700,9.8569,-0.2179,1.5869,-0.7019,-0.2441,9.7656,0.1387,0.3564,-0.0022,0.0077,-0.0014,0.7206,0.0113,-0.6933,0.0017,0.3758,-0.5439,-0.3939,-0.6384,9.6800,0.9300,0.9000,0.0000,0.0000,0.0000,0.4069,-0.5409,-0.3949,-0.6211,9.7200,0.4800,0.9500,0.0000,0.0000,0.0000,0.1413,-0.9562,-0.1730,-0.1888,4.0100,-1.9600,-8.6900,0.0000,0.0000,0.0000,0.6693,0.2965,-0.5813,0.3551,9.6300,-0.1100,1.4600,0.0000,0.0000,0.0000,0.5238,0.4495,-0.5129,0.5102,9.7200,-0.4800,0.6400,0.0000,0.0000,0.0000,0.0779,0.9657,-0.0955,0.2282,4.4700,1.0200,-8.6500,0.0000,0.0000,0.0000
69868,0,0,1,0.0000,4.3945,7.1411,3.5815,6.3281,-0.0037,-0.0073,-0.4395,1.8018,-0.1915,9.7731,-0.2490,1.4648,-1.0071,-0.3662,-0.1915,9.7731,-0.2490,1.4648,-1.0071,-0.3662,9.7556,0.1709,0.3717,0.0013,0.0072,0.0006,0.7206,0.0113,-0.6933,0.0017,0.3758,-0.5439,-0.3939,-0.6384,9.6900,0.9200,0.8900,0.0000,0.0000,0.0000,0.4069,-0.5409,-0.3949,-0.6211,9.7300,0.4700,0.9900,0.0000,0.0000,0.0000,0.1413,-0.9562,-0.1730,-0.1888,4.0100,-1.9900,-8.7000,0.0000,0.0000,0.0000,0.6693,0.2965,-0.5813,0.3551,9.6400,-0.1150,1.4450,0.0000,0.0000,0.0000,0.5238,0.4494,-0.5129,0.5102,9.7500,-0.4800,0.6400,0.0000,0.0000,0.0000,0.0779,0.9657,-0.0955,0.2282,4.4700,1.0200,-8.6400,0.0000,0.0000,0.0000
69869,0,0,1,0.0000,4.3945,7.1411,3.5815,6.3281,-0.0128,-0.0110,-0.4395,1.8018,-0.2011,9.8090,-0.2322,1.4648,-0.9460,-0.2441,-0.2011,9.8090,-0.2322,1.4648,-0.9460,-0.2441,9.7556,0.1709,0.3717,0.0013,0.0072,0.0006,0.7206,0.0113,-0.6933,0.0017,0.3758,-0.5439,-0.3939,-0.6384,9.6900,0.9200,0.8900,0.0000,0.0000,0.0000,0.4069,-0.5409,-0.3949,-0.6211,9.7400,0.4500,0.9800,0.0000,0.0000,0.0000,0.1413,-0.9562,-0.1730,-0.1888,4.0100,-1.9900,-8.7000,0.0000,0.0000,0.0000,0.6693,0.2965,-0.5813,0.3551,9.6500,-0.1200,1.4300,0.0000,0.0000,0.0000,0.5238,0.4494,-0.5129,0.5102,9.7300,-0.5100,0.6500,0.0000,0.0000,0.0000,0.0779,0.9657,-0.0955,0.2282,4.4700,1.0200,-8.6400,0.0000,0.0000,0.0000
69870,0,0,1,0.0000,4.3726,7.1411,3.5596,6.3281,-0.0073,-0.0293,-0.4395,1.8018,-0.1652,9.8019,-0.2394,1.1902,-0.7019,-0.2136,-0.1652,9.8019,-0.2394,1.1902,-0.7019,-0.2136,9.7197,0.1480,0.3143,-0.0015,0.0061,-0.0015,0.7206,0.0113,-0.6933,0.0017,0.3758,-0.5439,-0.3939,-0.6384,9.6800,0.9300,0.9000,0.0000,0.0000,0.0000,0.4069,-0.5409,-0.3949,-0.6211,9.7200,0.4300,0.9800,0.0000,0.0000,0.0000,0.1413,-0.9562,-0.1730,-0.1888,4.0000,-1.9900,-8.7000,0.0000,0.0000,0.0000,0.6693,0.2965,-0.5813,0.3551,9.6400,-0.1100,1.4300,0.0000,0.0000,0.0000,0.5238,0.4494,-0.5129,0.5102,9.7300,-0.5100,0.6500,0.0000,0.0000,0.0000,0.0779,0.9657,-0.0955,0.2282,4.4900,1.0100,-8.6300,0.0000,0.0000,0.0000
69871,0,0,1,0.0000,4.3726,7.1411,3.5596,6.3281,0.0110,-0.0110,-0.4395,1.8018,-0.1867,9.7923,-0.2538,1.5869,-0.8850,-0.3052,-0.1867,9.7923,-0.2538,1.5869,-0.8850,-0.3052,9.7197,0.1480,0.3143,-0.0015,0.0061,-0.0015,0.7206,0.0113,-0.6933,0.0017,0.3758,-0.5439,-0.3939,-0.6384,9.7000,0.9300,0.9000,0.0000,0.0000,0.0000,0.4069,-0.5409,-0.3949,-0.6211,9.7200,0.4300,0.9800,0.0000,0.0000,0.0000,0.1413,-0.9562,-0.1730,-0.1889,4.0100,-1.9800,-8.6800,0.0000,0.0000,0.0000,0.6693,0.2965,-0.5813,0.3551,9.6500,-0.1200,1.4100,0.0000,0.0000,0.0000,0.5238,0.4494,-0.5129,0.5102,9.7500,-0.5200,0.6700,0.0000,0.0000,0.0000,0.0779,0.9657,-0.0955,0.2282,4.5000,1.0400,-8.6400,0.0000,0.0000,0.0000
69872,0,0,1,0.0000,4.3726,7.1411,3.5596,6.3281,-0.0018,-0.0183,-0.4395,1.8018,-0.1580,9.7636,-0.2801,1.6174,-0.8850,-0.0916,-0.1580,9.7636,-0.2801,1.6174,-0.8850,-0.0916,9.7197,0.1480,0.3143,-0.0015,0.0061,-0.0015,0.7206,0.0113,-0.6933,0.0017,0.3758,-0.5439,-0.3939,-0.6384,9.7000,0.9000,0.9100,0.0000,0.0000,0.0000,0.4069,-0.5409,-0.3949,-0.6211,9.7100,0.4000,0.9600,0.0000,0.0000,0.0000,0.1413,-0.9562,-0.1730,-0.1889,3.9900,-1.9900,-8.6900,0.0000,0.0000,0.0000,0.6693,0.2965,-0.5813,0.3551,9.6900,-0.1000,1.4100,0.0000,0.0000,0.0000,0.5238,0.4494,-0.5129,0.5102,9.7300,-0.5300,0.6700,0.0000,0.0000,0.0000,0.0779,0.9657,-0.0955,0.2282,4.4700,1.0200,-8.6300,0.0000,0.0000,0.0000
69873,0,0,1,0.0000,4.3726,7.1411,3.5596,6.3281,0.0092,-0.0110,-0.4395,1.8018,-0.1915,9.7923,-0.2179,1.3428,-0.7935,-0.2441,-0.1915,9.7923,-0.2179,1.3428,-0.7935,-0.2441,9.7410,0.1754,0.3281,0.0058,0.0078,-0.0034,0.7206,0.0113,-0.6933,0.0016,0.3758,-0.5439,-0.3939,-0.6384,9.7200,0.8900,0.9200,0.0000,0.0000,0.0000,0.4069,-0.5409,-0.3949,-0.6211,9.7200,0.3900,0.9500,0.0000,0.0000,0.0000,0.1413,-0.9562,-0.1730,-0.1889,4.0100,-2.0000,-8.7100,0.0000,0.0000,0.0000,0.6693,0.2965,-0.5813,0.3551,9.6900,-0.1000,1.4100,0.0000,0.0000,0.0000,0.5238,0.4494,-0.5129,0.5102,9.7100,-0.5300,0.6700,0.0000,0.0000,0.0000,0.0779,0.9657,-0.0955,0.2282,4.4800,1.0200,-8.6400,0.0000,0.0000,0.0000
69874,0,0,1,0.0000,4.3726,7.1411,3.5596,6.3281,0.0092,0.0183,-0.4395,1.8018,-0.1389,9.8186,-0.2274,1.2207,-0.9460,-0.1831,-0.1389,9.8186,-0.2274,1.2207,-0.9460,-0.1831,9.7410,0.1754,0.3281,0.0058,0.0078,-0.0034,0.7206,0.0113,-0.6933,0.0016,0.3758,-0.5439,-0.3939,-0.6384,9.7200,0.8900,0.9200,0.0000,0.0000,0.0000,0.4069,-0.5409,-0.3949,-0.6211,9.7200,0.3700,0.9700,0.0000,0.0000,0.0000,0.1413,-0.9562,-0.1730,-0.1889,4.0000,-1.9900,-8.7000,0.0000,0.0000,0.0000,0.6693,0.2965,-0.5813,0.3551,9.6900,-0.1100,1.4100,0.0000,0.0000,0.0000,0.5238,0.4494,-0.5129,0.5102,9.7300,-0.5300,0.6800,0.0000,0.0000,0.0000,0.0779,0.9657,-0.0955,0.2282,4.4800,1.0200,-8.6400,0.0000,0.0000,0.0000
69875,0,0,1,0.0000,4.3726,7.1411,3.5596,6.3281,-0.0073,-0.0256,-0.4395,1.8018,-0.1604,9.8234,-0.2322,1.4648,-1.0376,-0.2136,-0.1604,9.8234,-0.2322,1.4648,-1.0376,-0.2136,9.7441,0.1804,0.3317,0.0010,0.0069,-0.0007,0.7206,0.0113,-0.6933,0.0016,0.3758,-0.5439,-0.3939,-0.6385,9.7300,0.9000,0.9100,0.0000,0.0000,0.0000,0.4069,-0.5409,-0.3949,-0.6211,9.7200,0.3700,0.9700,0.0000,0.0000,0.0000,0.1413,-0.9562,-0.1730,-0.1889,4.0000,-1.9900,-8.7000,0.0000,0.0000,0.0000,0.6693,0.2965,-0.5813,0.3551,9.6900,-0.1200,1.4400,0.0000,0.0000,0.0000,0.5238,0.4494,-0.5129,0.5102,9.7300,-0.5300,0.6800,0.0000,0.0000,0.0000,0.0779,0.9657,-0.0955,0.2282,4.4800,1.0300,-8.6500,0.0000,0.0000,0.0000
69876,0,0,1,0.0000,4.3726,7.1411,3.5596,6.3281,0.0092,-0.0146,-0.4395,1.8018,-0.2011,9.7492,-0.2610,1.5869,-1.0376,-0.1831,-0.2011,9.7492,-0.2610,1.5869,-1.0376,-0.1831,9.7441,0.1804,0.3317,0.0010,0.0069,-0.0007,0.7206,0.0113,-0.6933,0.0016,0.3758,-0.5439,-0.3939,-0.6385,9.7100,0.8700,0.9200,0.0000,0.0000,0.0000,0.4069,-0.5408,-0.3950,-0.6211,9.7200,0.3700,0.9600,0.0000,0.0000,0.0000,0.1413,-0.9562,-0.1730,-0.1889,4.0000,-2.0000,-8.7000,0.0000,0.0000,0.0000,0.6693,0.2966,-0.5813,0.3551,9.6800,-0.1300,1.4200,0.0000,0.0000,0.0000,0.5238,0.4494,-0.5129,0.5102,9.7500,-0.5300,0.6800,0.0000,0.0000,0.0000,0.0779,0.9657,-0.0955,0.2282,4.4600,1.0000,-8.6600,0.0000,0.0000,0.0000
69877,0,0,1,0.0000,4.3726,7.1411,3.5596,6.3281,-0.0110,-0.0055,-0.4395,1.8018,-0.1245,9.7923,-0.2298,1.4343,-0.8850,0.0000,-0.1245,9.7923,-0.2298,1.4343,-0.8850,0.0000,9.7441,0.1804,0.3317,0.0010,0.0069,-0.0007,0.7206,0.0113,-0.6933,0.0016,0.3758,-0.5439,-0.3939,-0.6384,9.7000,0.8700,0.9300,0.0000,0.0000,0.0000,0.4069,-0.5408,-0.3950,-0.6211,9.7200,0.3900,0.9600,0.0000,0.0000,0.0000,0.1413,-0.9562,-0.1730,-0.1889,4.0100,-1.9800,-8.7100,0.0000,0.0000,0.0000,0.6693,0.2966,-0.5813,0.3551,9.6600,-0.1800,1.4600,0.0000,0.0000,0.0000,0.5238,0.4494,-0.5129,0.5102,9.7500,-0.5300,0.6800,0.0000,0.0000,0.0000,0.0779,0.9657,-0.0955,0.2282,4.4700,1.0400,-8.6500,0.0000,0.0000,0.0000
69878,0,0,1,0.0000,4.3726,7.1411,3.5596,6.3281,-0.0110,-0.0183,-0.4395,1.8018,-0.1389,9.8210,-0.2298,1.6174,-1.2512,0.0305,-0.1389,9.8210,-0.2298,1.6174,-1.2512,0.0305,9.7463,0.1777,0.3382,0.0058,0.0108,0.0008,0.7206,0.0113,-0.6932,0.0017,0.3758,-0.5439,-0.3939,-0.6385,9.7100,0.8600,0.9300,0.0000,0.0000,0.0000,0.4069,-0.5408,-0.3950,-0.6211,9.7400,0.4000,0.9700,0.0000,0.0000,0.0000,0.1413,-0.9562,-0.1730,-0.1889,4.0100,-2.0000,-8.7100,0.0000,0.0000,0.0000,0.6693,0.2966,-0.5813,0.3551,9.6600,-0.1800,1.4600,0.0000,0.0000,0.0000,0.5238,0.4494,-0.5129,0.5102,9.7600,-0.5100,0.6800,0.0000,0.0000,0.0000,0.0779,0.9657,-0.0955,0.2282,4.4800,1.0400,-8.6400,0.0000,0.0000,0.0000
69879,0,0,1,0.0000,4.3726,7.1411,3.5596,6.3281,0.0128,-0.0146,-0.4395,1.8018,-0.1772,9.7971,-0.2394,1.5259,-1.3428,-0.0610,-0.1772,9.7971,-0.2394,1.5259,-1.3428,-0.0610,9.7463,0.1777,0.3382,0.0058,0.0108,0.0008,0.7206,0.0113,-0.6932,0.0017,0.3758,-0.5439,-0.3939,-0.6385,9.7100,0.8600,0.9300,0.0000,0.0000,0.0000,0.4069,-0.5408,-0.3950,-0.6211,9.7100,0.4200,0.9800,0.0000,0.0000,0.0000,0.1413,-0.9562,-0.1730,-0.1889,4.0100,-2.0000,-8.7100,0.0000,0.0000,0.0000,0.6693,0.2966,-0.5813,0.3551,9.6600,-0.2000,1.4100,0.0000,0.0000,0.0000,0.5238,0.4494,-0.5129,0.5102,9.7400,-0.5000,0.6600,0.0000,0.0000,0.0000,0.0779,0.9657,-0.0955,0.2282,4.4800,1.0200,-8.6400,0.0000,0.0000,0.0000
69880,0,0,1,0.0000,4.3726,7.1411,3.5596,6.3281,-0.0092,-0.0037,-0.4395,1.8018,-0.1748,9.7683,-0.2155,1.6479,-0.9766,-0.0305,-0.1748,9.7683,-0.2155,1.6479,-0.9766,-0.0305,9.7496,0.1857,0.2661,0.0005,0.0087,0.0004,0.7206,0.0113,-0.6932,0.0017,0.3758,-0.5439,-0.3939,-0.6384,9.7300,0.8500,0.9300,0.0000,0.0000,0.0000,0.4069,-0.5409,-0.3949,-0.6211,9.7200,0.4400,0.9700,0.0000,0.0000,0.0000,0.1413,-0.9562,-0.1730,-0.1889,4.0000,-2.0000,-8.7000,0.0000,0.0000,0.0000,0.6692,0.2966,-0.5812,0.3551,9.7000,-0.2100,1.4000,0.0000,0.0000,0.0000,0.5238,0.4495,-0.5129,0.5102,9.7600,-0.5200,0.6500,0.0000,0.0000,0.0000,0.0779,0.9657,-0.0955,0.2282,4.5000,1.0100,-8.6400,0.0000,0.0000,0.0000
69881,0,0,1,0.0000,4.3726,7.1411,3.5596,6.3281,0.0055,-0.0275,-0.4395,1.8018,-0.1676,9.7683,-0.2322,1.4343,-1.0071,0.0000,-0.1676,9.7683,-0.2322,1.4343,-1.0071,0.0000,9.7496,0.1857,0.2661,0.0005,0.0087,0.0004,0.7206,0.0113,-0.6932,0.0017,0.3758,-0.5440,-0.3939,-0.6384,9.7100,0.8700,0.9400,0.0000,0.0000,0.0000,0.4069,-0.5409,-0.3949,-0.6211,9.7200,0.4400,0.9700,0.0000,0.0000,0.0000,0.1413,-0.9562,-0.1730,-0.1889,4.0100,-1.9900,-8.7100,0.0000,0.0000,0.0000,0.6692,0.2966,-0.5812,0.3551,9.7000,-0.2100,1.3900,0.0000,0.0000,0.0000,0.5238,0.4495,-0.5129,0.5102,9.7600,-0.5200,0.6500,0.0000,0.0000,0.0000,0.0779,0.9657,-0.0955,0.2282,4.5000,1.0100,-8.6400,0.0000,0.0000,0.0000
69882,0,0,1,0.0000,4.3726,7.1411,3.5596,6.3281,-0.0201,-0.0311,-0.4395,1.8018,-0.1053,9.8593,-0.2059,1.5869,-1.0986,-0.1221,-0.1053,9.8593,-0.2059,1.5869,-1.0986,-0.1221,9.7496,0.1857,0.2661,0.0005,0.0087,0.0004,0.7206,0.0113,-0.6932,0.0017,0.3758,-0.5440,-0.3939,-0.6384,9.7000,0.8600,0.9400,0.0000,0.0000,0.0000,0.4069,-0.5409,-0.3949,-0.6211,9.7300,0.4400,0.9700,0.0000,0.0000,0.0000,0.1413,-0.9562,-0.1730,-0.1889,4.0200,-2.0000,-8.6900,0.0000,0.0000,0.0000,0.6692,0.2967,-0.5812,0.3551,9.6600,-0.2100,1.3600,0.0000,0.0000,0.0000,0.5238,0.4495,-0.5129,0.5102,9.7700,-0.5300,0.6400,0.0000,0.0000,0.0000,0.0779,0.9657,-0.0955,0.2282,4.4800,1.0200,-8.6500,0.0000,0.0000,0.0000
69883,0,0,1,0.0000,4.3726,7.1411,3.5596,6.3281,0.0092,0.0146,-0.4395,1.8018,-0.1413,9.8090,-0.2203,1.4954,-1.1292,0.1526,-0.1413,9.8090,-0.2203,1.4954,-1.1292,0.1526,9.8048,0.1889,0.3384,-0.0006,0.0118,0.0036,0.7206,0.0113,-0.6932,0.0016,0.3758,-0.5440,-0.3939,-0.6384,9.7100,0.8700,0.9400,0.0000,0.0000,0.0000,0.4069,-0.5409,-0.3949,-0.6211,9.7000,0.4600,0.9800,0.0000,0.0000,0.0000,0.1413,-0.9562,-0.1730,-0.1889,4.0200,-2.0000,-8.6900,0.0000,0.0000,0.0000,0.6692,0.2967,-0.5812,0.3551,9.6600,-0.2100,1.3600,0.0000,0.0000,0.0000,0.5238,0.4495,-0.5129,0.5102,9.7700,-0.5300,0.6900,0.0000,0.0000,0.0000,0.0779,0.9657,-0.0955,0.2282,4.4900,1.0300,-8.6600,0.0000,0.0000,0.0000
69884,0,0,1,0.0000,4.3726,7.1411,3.5596,6.3281,-0.0092,-0.0201,-0.4395,1.8018,-0.2274,9.7588,-0.2131,1.5564,-1.0376,-0.2136,-0.2274,9.7588,-0.2131,1.5564,-1.0376,-0.2136,9.8048,0.1889,0.3384,-0.0006,0.0118,0.0036,0.7206,0.0113,-0.6932,0.0016,0.3758,-0.5440,-0.3939,-0.6384,9.7100,0.8700,0.9400,0.0000,0.0000,0.0000,0.4069,-0.5409,-0.3949,-0.6211,9.7000,0.4800,0.9700,0.0000,0.0000,0.0000,0.1413,-0.9562,-0.1730,-0.1888,3.9900,-2.0100,-8.7000,0.0000,0.0000,0.0000,0.6692,0.2967,-0.5812,0.3551,9.7000,-0.2100,1.3800,0.0000,0.0000,0.0000,0.5238,0.4495,-0.5129,0.5102,9.7600,-0.5300,0.6800,0.0000,0.0000,0.0000,0.0779,0.9657,-0.0955,0.2282,4.4700,1.0500,-8.6400,0.0000,0.0000,0.0000
69885,0,0,1,0.0000,4.3726,7.1411,3.5596,6.3281,-0.0183,0.0128,-0.4395,1.8018,-0.1269,9.8019,-0.2035,1.4343,-1.0376,0.0305,-0.1269,9.8019,-0.2035,1.4343,-1.0376,0.0305,9.8048,0.1889,0.3384,-0.0006,0.0118,0.0036,0.7206,0.0113,-0.6932,0.0016,0.3758,-0.5440,-0.3939,-0.6384,9.7100,0.8700,0.9500,0.0000,0.0000,0.0000,0.4069,-0.5408,-0.3949,-0.6211,9.6900,0.5000,0.9500,0.0000,0.0000,0.0000,0.1413,-0.9562,-0.1730,-0.1889,4.0000,-1.9700,-8.7000,0.0000,0.0000,0.0000,0.6692,0.2967,-0.5813,0.3551,9.6800,-0.2000,1.4200,0.0000,0.0000,0.0000,0.5238,0.4495,-0.5129,0.5102,9.7700,-0.5300,0.7100,0.0000,0.0000,0.0000,0.0779,0.9657,-0.0955,0.2282,4.4700,1.0500,-8.6400,0.0000,0.0000,0.0000
69886,0,0,1,0.0000,4.3726,7.1411,3.5596,6.3281,-0.0037,0.0073,-0.4395,1.8018,-0.1508,9.8019,-0.2035,1.5259,-1.3123,0.0610,-0.1508,9.8019,-0.2035,1.5259,-1.3123,0.0610,9.7628,0.1918,0.3359,0.0031,0.0105,-0.0001,0.7207,0.0113,-0.6932,0.0017,0.3758,-0.5440,-0.3939,-0.6384,9.7100,0.8700,0.9300,0.0000,0.0000,0.0000,0.4069,-0.5408,-0.3949,-0.6211,9.6900,0.5000,0.9500,0.0000,0.0000,0.0000,0.1413,-0.9562,-0.1730,-0.1888,4.0000,-1.9700,-8.7200,0.0000,0.0000,0.0000,0.6692,0.2967,-0.5813,0.3551,9.6700,-0.2300,1.4200,0.0000,0.0000,0.0000,0.5238,0.4495,-0.5129,0.5102,9.7700,-0.5300,0.7100,0.0000,0.0000,0.0000,0.0779,0.9657,-0.0955,0.2282,4.4800,1.0400,-8.6200,0.0000,0.0000,0.0000
69887,0,0,1,0.0000,4.3726,7.1411,3.5596,6.3281,-0.0055,0.0128,-0.4395,1.8018,-0.1987,9.7875,-0.2538,1.5869,-1.3733,-0.0916,-0.1987,9.7875,-0.2538,1.5869,-1.3733,-0.0916,9.7628,0.1918,0.3359,0.0031,0.0105,-0.0001,0.7207,0.0113,-0.6932,0.0017,0.3758,-0.5440,-0.3939,-0.6384,9.7100,0.8700,0.9400,0.0000,0.0000,0.0000,0.4069,-0.5408,-0.3949,-0.6211,9.6800,0.4900,0.9500,0.0000,0.0000,0.0000,0.1413,-0.9562,-0.1730,-0.1888,3.9900,-1.9600,-8.7100,0.0000,0.0000,0.0000,0.6692,0.2967,-0.5813,0.3551,9.7100,-0.2300,1.4400,0.0000,0.0000,0.0000,0.5238,0.4495,-0.5129,0.5102,9.7700,-0.5400,0.6900,0.0000,0.0000,0.0000,0.0779,0.9657,-0.0955,0.2282,4.5000,1.0500,-8.6400,0.0000,0.0000,0.0000
69888,0,0,1,0.0000,4.3726,7.1411,3.5596,6.3281,0.0000,-0.0110,-0.4395,1.8018,-0.1628,9.8282,-0.2346,1.4038,-1.2512,0.0305,-0.1628,9.8282,-0.2346,1.4038,-1.2512,0.0305,9.7706,0.1830,0.3667,0.0002,0.0102,-0.0032,0.7207,0.0113,-0.6932,0.0016,0.3758,-0.5440,-0.3938,-0.6384,9.7000,0.8800,0.9500,0.0000,0.0000,0.0000,0.4069,-0.5408,-0.3949,-0.6211,9.6900,0.5000,0.9200,0.0000,0.0000,0.0000,0.1413,-0.9562,-0.1730,-0.1888,3.9800,-1.9600,-8.7100,0.0000,0.0000,0.0000,0.6692,0.2966,-0.5813,0.3551,9.6900,-0.1900,1.4900,0.0000,0.0000,0.0000,0.5238,0.4495,-0.5129,0.5102,9.7600,-0.5500,0.7100,0.0000,0.0000,0.0000,0.0779,0.9657,-0.0955,0.2282,4.4700,1.0100,-8.6500,0.0000,0.0000,0.0000
69889,0,0,1,0.0000,4.3726,7.1411,3.5596,6.3281,-0.0073,0.0146,-0.4395,1.8018,-0.1413,9.8689,-0.2658,1.5259,-1.0071,0.0305,-0.1413,9.8689,-0.2658,1.5259,-1.0071,0.0305,9.7706,0.1830,0.3667,0.0002,0.0102,-0.0032,0.7207,0.0113,-0.6932,0.0016,0.3758,-0.5440,-0.3938,-0.6384,9.7000,0.8800,0.9500,0.0000,0.0000,0.0000,0.4069,-0.5408,-0.3949,-0.6211,9.7100,0.4800,0.9500,0.0000,0.0000,0.0000,0.1413,-0.9562,-0.1730,-0.1888,3.9800,-1.9600,-8.7100,0.0000,0.0000,0.0000,0.6692,0.2966,-0.5813,0.3551,9.6900,-0.1900,1.4900,0.0000,0.0000,0.0000,0.5238,0.4495,-0.5129,0.5102,9.7700,-0.5400,0.6900,0.0000,0.0000,0.0000,0.0779,0.9657,-0.0955,0.2282,4.4800,1.0300,-8.6500,0.0000,0.0000,0.0000
69890,0,0,1,0.0000,4.3726,7.1411,3.5596,6.3281,0.0128,0.0220,-0.4395,1.8018,-0.2179,9.7779,-0.2801,1.5259,-1.2207,-0.0610,-0.2179,9.7779,-0.2801,1.5259,-1.2207,-0.0610,9.7706,0.1830,0.3667,0.0002,0.0102,-0.0032,0.7207,0.0113,-0.6932,0.0016,0.3758,-0.5440,-0.3939,-0.6384,9.6800,0.8700,0.9400,0.0000,0.0000,0.0000,0.4069,-0.5408,-0.3949,-0.6211,9.7300,0.4600,0.9600,0.0000,0.0000,0.0000,0.1413,-0.9562,-0.1730,-0.1888,4.0200,-1.9800,-8.7000,0.0000,0.0000,0.0000,0.6692,0.2966,-0.5813,0.3550,9.6700,-0.1900,1.5100,0.0000,0.0000,0.0000,0.5238,0.4495,-0.5129,0.5102,9.7700,-0.5400,0.6900,0.0000,0.0000,0.0000,0.0779,0.9657,-0.0955,0.2282,4.4800,1.0300,-8.6500,0.0000,0.0000,0.0000
69891,0,0,1,0.0000,4.3726,7.1411,3.5596,6.3281,-0.0055,0.0220,-0.4395,1.8018,-0.2035,9.7779,-0.2873,1.5564,-1.1597,0.0000,-0.2035,9.7779,-0.2873,1.5564,-1.1597,0.0000,9.8002,0.1462,0.3817,0.0040,0.0171,-0.0004,0.7207,0.0113,-0.6932,0.0017,0.3758,-0.5440,-0.3938,-0.6384,9.7000,0.8600,0.9400,0.0000,0.0000,0.0000,0.4069,-0.5408,-0.3949,-0.6211,9.7300,0.4600,0.9600,0.0000,0.0000,0.0000,0.1413,-0.9562,-0.1730,-0.1888,4.0200,-1.9800,-8.7000,0.0000,0.0000,0.0000,0.6693,0.2966,-0.5813,0.3550,9.6800,-0.1500,1.5400,0.0000,0.0000,0.0000,0.5238,0.4495,-0.5129,0.5102,9.7600,-0.5300,0.7000,0.0000,0.0000,0.0000,0.0779,0.9657,-0.0955,0.2282,4.4800,1.0300,-8.6500,0.0000,0.0000,0.0000
69892,0,0,1,0.0000,4.3726,7.1411,3.5596,6.3281,0.0055,-0.0220,-0.4395,1.8018,-0.1724,9.8330,-0.2251,1.4954,-1.1292,0.0000,-0.1724,9.8330,-0.2251,1.4954,-1.1292,0.0000,9.8002,0.1462,0.3817,0.0040,0.0171,-0.0004,0.7207,0.0113,-0.6932,0.0017,0.3758,-0.5440,-0.3938,-0.6384,9.7000,0.8800,0.9600,0.0000,0.0000,0.0000,0.4069,-0.5408,-0.3949,-0.6211,9.7300,0.4800,0.9900,0.0000,0.0000,0.0000,0.1413,-0.9562,-0.1730,-0.1888,4.0000,-1.9900,-8.7000,0.0000,0.0000,0.0000,0.6693,0.2966,-0.5813,0.3550,9.6700,-0.1500,1.4900,0.0000,0.0000,0.0000,0.5238,0.4495,-0.5129,0.5103,9.7600,-0.5200,0.7000,0.0000,0.0000,0.0000,0.0779,0.9657,-0.0955,0.2282,4.4800,1.0600,-8.6400,0.0000,0.0000,0.0000
69893,0,0,1,0.0000,4.3726,7.1411,3.5596,6.3281,-0.0092,-0.0183,-0.4395,1.8018,-0.1820,9.8067,-0.2394,1.4038,-1.2817,0.0305,-0.1820,9.8067,-0.2394,1.4038,-1.2817,0.0305,9.8079,0.1555,0.4055,0.0036,0.0101,-0.0023,0.7207,0.0113,-0.6931,0.0016,0.3758,-0.5440,-0.3938,-0.6384,9.7000,0.8800,0.9600,0.0000,0.0000,0.0000,0.4069,-0.5408,-0.3949,-0.6211,9.7500,0.4500,1.0000,0.0000,0.0000,0.0000,0.1413,-0.9562,-0.1730,-0.1888,4.0300,-1.9800,-8.7000,0.0000,0.0000,0.0000,0.6693,0.2966,-0.5813,0.3550,9.7100,-0.1500,1.4400,0.0000,0.0000,0.0000,0.5238,0.4494,-0.5129,0.5102,9.7600,-0.5300,0.7200,0.0000,0.0000,0.0000,0.0779,0.9657,-0.0955,0.2282,4.4800,1.0300,-8.6400,0.0000,0.0000,0.0000
69894,0,0,1,0.0000,4.3726,7.1411,3.5596,6.3281,0.0220,0.0000,-0.4395,1.8018,-0.2203,9.7540,-0.2298,1.5259,-1.2817,-0.0610,-0.2203,9.7540,-0.2298,1.5259,-1.2817,-0.0610,9.8079,0.1555,0.4055,0.0036,0.0101,-0.0023,0.7207,0.0113,-0.6931,0.0016,0.3758,-0.5440,-0.3938,-0.6384,9.7000,0.8800,0.9600,0.0000,0.0000,0.0000,0.4069,-0.5408,-0.3949,-0.6211,9.7700,0.4700,1.0000,0.0000,0.0000,0.0000,0.1413,-0.9562,-0.1730,-0.1888,4.0300,-1.9800,-8.7000,0.0000,0.0000,0.0000,0.6693,0.2966,-0.5813,0.3550,9.7100,-0.1500,1.4400,0.0000,0.0000,0.0000,0.5238,0.4494,-0.5129,0.5102,9.7500,-0.5200,0.7100,0.0000,0.0000,0.0000,0.0779,0.9657,-0.0955,0.2282,4.4700,1.0600,-8.6300,0.0000,0.0000,0.0000
69895,0,0,1,0.0000,4.3726,7.1411,3.5596,6.3281,-0.0110,0.0037,-0.4395,1.8018,-0.2083,9.8019,-0.2705,1.4343,-0.9155,0.0610,-0.2083,9.8019,-0.2705,1.4343,-0.9155,0.0610,9.8079,0.1555,0.4055,0.0036,0.0101,-0.0023,0.7207,0.0113,-0.6931,0.0016,0.3758,-0.5440,-0.3938,-0.6384,9.7100,0.8800,0.9800,0.0000,0.0000,0.0000,0.4069,-0.5408,-0.3949,-0.6211,9.7900,0.4300,0.9900,0.0000,0.0000,0.0000,0.1413,-0.9562,-0.1730,-0.1888,3.9800,-1.9800,-8.7200,0.0000,0.0000,0.0000,0.6693,0.2965,-0.5813,0.3550,9.6800,-0.1300,1.4700,0.0000,0.0000,0.0000,0.5238,0.4494,-0.5129,0.5102,9.7500,-0.5300,0.7100,0.0000,0.0000,0.0000,0.0779,0.9657,-0.0955,0.2282,4.4700,1.0600,-8.6300,0.0000,0.0000,0.0000
69896,0,0,1,0.0000,4.3726,7.1411,3.5596,6.3281,-0.0018,0.0128,-0.4395,1.8018,-0.2251,9.7923,-0.2394,1.3733,-1.0986,0.0000,-0.2251,9.7923,-0.2394,1.3733,-1.0986,0.0000,9.7717,0.1406,0.3815,0.0086,0.0091,0.0002,0.7207,0.0113,-0.6931,0.0017,0.3758,-0.5440,-0.3938,-0.6384,9.7100,0.8800,0.9800,0.0000,0.0000,0.0000,0.4069,-0.5408,-0.3949,-0.6211,9.7900,0.4300,0.9900,0.0000,0.0000,0.0000,0.1413,-0.9562,-0.1730,-0.1888,4.0000,-1.9900,-8.7000,0.0000,0.0000,0.0000,0.6693,0.2965,-0.5813,0.3550,9.6700,-0.1500,1.4700,0.0000,0.0000,0.0000,0.5238,0.4494,-0.5129,0.5102,9.7500,-0.5300,0.7100,0.0000,0.0000,0.0000,0.0779,0.9657,-0.0955,0.2282,4.4700,1.0300,-8.6400,0.0000,0.0000,0.0000
69897,0,0,1,0.0000,4.3726,7.1411,3.5596,6.3281,0.0165,0.0165,-0.4395,1.8018,-0.1867,9.8210,-0.2538,1.5259,-1.1902,0.1221,-0.1867,9.8210,-0.2538,1.5259,-1.1902,0.1221,9.7717,0.1406,0.3815,0.0086,0.0091,0.0002,0.7207,0.0113,-0.6931,0.0017,0.3758,-0.5440,-0.3938,-0.6384,9.7100,0.8900,0.9700,0.0000,0.0000,0.0000,0.4069,-0.5408,-0.3949,-0.6211,9.7800,0.3900,0.9500,0.0000,0.0000,0.0000,0.1413,-0.9562,-0.1730,-0.1888,3.9800,-1.9900,-8.7100,0.0000,0.0000,0.0000,0.6693,0.2965,-0.5813,0.3550,9.7000,-0.1600,1.5100,0.0000,0.0000,0.0000,0.5238,0.4495,-0.5129,0.5102,9.7400,-0.5500,0.6800,0.0000,0.0000,0.0000,0.0779,0.9657,-0.0955,0.2282,4.4800,1.0100,-8.6400,0.0000,0.0000,0.0000
69898,0,0,1,0.0000,4.3726,7.1411,3.5596,6.3281,-0.0128,0.0055,-0.4395,1.8018,-0.2442,9.7444,-0.2921,1.3428,-1.0071,0.0000,-0.2442,9.7444,-0.2921,1.3428,-1.0071,0.0000,9.7996,0.1439,0.3733,0.0079,0.0057,0.0008,0.7207,0.0113,-0.6931,0.0017,0.3758,-0.5440,-0.3938,-0.6384,9.7100,0.8900,0.9700,0.0000,0.0000,0.0000,0.4069,-0.5408,-0.3949,-0.6211,9.7600,0.4200,0.9600,0.0000,0.0000,0.0000,0.1413,-0.9562,-0.1730,-0.1888,3.9800,-1.9700,-8.7200,0.0000,0.0000,0.0000,0.6693,0.2965,-0.5813,0.3549,9.6900,-0.1550,1.5300,0.0000,0.0000,0.0000,0.5238,0.4495,-0.5129,0.5102,9.7400,-0.5500,0.6900,0.0000,0.0000,0.0000,0.0779,0.9657,-0.0955,0.2282,4.4700,1.0300,-8.6400,0.0000,0.0000,0.0000
69899,0,0,1,0.0000,4.3726,7.1411,3.5596,6.3281,-0.0128,-0.0146,-0.4395,1.8018,-0.1628,9.8450,-0.2107,1.2512,-0.8850,0.0000,-0.1628,9.8450,-0.2107,1.2512,-0.8850,0.0000,9.7996,0.1439,0.3733,0.0079,0.0057,0.0008,0.7207,0.0113,-0.6931,0.0017,0.3758,-0.5440,-0.3938,-0.6384,9.7100,0.8900,0.9700,0.0000,0.0000,0.0000,0.4069,-0.5408,-0.3949,-0.6211,9.7900,0.4400,0.9900,0.0000,0.0000,0.0000,0.1413,-0.9562,-0.1730,-0.1888,3.9800,-1.9700,-8.7200,0.0000,0.0000,0.0000,0.6693,0.2965,-0.5813,0.3549,9.6800,-0.1500,1.5500,0.0000,0.0000,0.0000,0.5238,0.4495,-0.5129,0.5102,9.7400,-0.5300,0.7000,0.0000,0.0000,0.0000,0.0779,0.9657,-0.0955,0.2282,4.4800,1.0200,-8.6500,0.0000,0.0000,0.0000
69900,0,0,1,0.0000,4.3726,7.1411,3.5596,6.3281,-0.0073,-0.0092,-0.4395,1.8018,-0.2370,9.7923,-0.2562,1.4038,-0.8850,0.1221,-0.2370,9.7923,-0.2562,1.4038,-0.8850,0.1221,9.7996,0.1439,0.3733,0.0079,0.0057,0.0008,0.7207,0.0113,-0.6931,0.0017,0.3758,-0.5440,-0.3938,-0.6384,9.7100,0.9000,0.9900,0.0000,0.0000,0.0000,0.4069,-0.5408,-0.3949,-0.6211,9.7900,0.4400,0.9900,0.0000,0.0000,0.0000,0.1413,-0.9562,-0.1730,-0.1888,4.0100,-1.9700,-8.7000,0.0000,0.0000,0.0000,0.6693,0.2965,-0.5813,0.3549,9.6900,-0.1600,1.5200,0.0000,0.0000,0.0000,0.5238,0.4494,-0.5129,0.5102,9.7200,-0.5400,0.7100,0.0000,0.0000,0.0000,0.0779,0.9657,-0.0955,0.2282,4.4800,1.0200,-8.6500,0.0000,0.0000,0.0000
69901,0,0,1,0.0000,4.3726,7.1411,3.5596,6.3281,0.0037,-0.0183,-0.4395,1.8018,-0.2203,9.7731,-0.2945,1.4954,-1.1292,-0.2136,-0.2203,9.7731,-0.2945,1.4954,-1.1292,-0.2136,9.7930,0.1340,0.3582,0.0100,0.0102,0.0022,0.7208,0.0113,-0.6931,0.0017,0.3758,-0.5440,-0.3938,-0.6384,9.7300,0.9300,0.9800,0.0000,0.0000,0.0000,0.4069,-0.5408,-0.3949,-0.6211,9.7800,0.5000,1.0100,0.0000,0.0000,0.0000,0.1413,-0.9562,-0.1730,-0.1888,4.0000,-1.9500,-8.6900,0.0000,0.0000,0.0000,0.6694,0.2965,-0.5813,0.3549,9.7200,-0.1300,1.5500,0.0000,0.0000,0.0000,0.5238,0.4494,-0.5129,0.5102,9.7200,-0.5400,0.7100,0.0000,0.0000,0.0000,0.0779,0.9657,-0.0955,0.2282,4.4700,1.0600,-8.6400,0.0000,0.0000,0.0000
69902,0,0,1,0.0000,4.3726,7.1411,3.5596,6.3281,-0.0055,0.0073,-0.4395,1.8018,-0.2322,9.7779,-0.2322,1.3733,-1.0681,0.1526,-0.2322,9.7779,-0.2322,1.3733,-1.0681,0.1526,9.7930,0.1340,0.3582,0.0100,0.0102,0.0022,0.7208,0.0113,-0.6931,0.0017,0.3758,-0.5440,-0.3938,-0.6384,9.7300,0.9300,0.9900,0.0000,0.0000,0.0000,0.4069,-0.5408,-0.3949,-0.6211,9.7800,0.5000,1.0100,0.0000,0.0000,0.0000,0.1413,-0.9562,-0.1730,-0.1888,4.0000,-1.9900,-8.7000,0.0000,0.0000,0.0000,0.6694,0.2964,-0.5813,0.3549,9.6900,-0.1100,1.5100,0.0000,0.0000,0.0000,0.5238,0.4494,-0.5129,0.5102,9.7300,-0.5200,0.7300,0.0000,0.0000,0.0000,0.0779,0.9657,-0.0955,0.2282,4.4700,1.0300,-8.6400,0.0000,0.0000,0.0000
69903,0,0,1,0.0000,4.3726,7.1411,3.5596,6.3281,-0.0055,0.0165,-0.4395,1.8018,-0.1748,9.7779,-0.2849,1.4343,-0.7935,0.1831,-0.1748,9.7779,-0.2849,1.4343,-0.7935,0.1831,9.7573,0.1192,0.3715,0.0071,0.0095,0.0010,0.7208,0.0114,-0.6931,0.0017,0.3758,-0.5440,-0.3938,-0.6384,9.7300,0.9400,0.9700,0.0000,0.0000,0.0000,0.4069,-0.5408,-0.3949,-0.6212,9.7600,0.5300,0.9900,0.0000,0.0000,0.0000,0.1413,-0.9562,-0.1730,-0.1888,3.9900,-2.0000,-8.7100,0.0000,0.0000,0.0000,0.6694,0.2964,-0.5813,0.3549,9.6900,-0.1100,1.5100,0.0000,0.0000,0.0000,0.5238,0.4494,-0.5129,0.5102,9.7200,-0.4700,0.7400,0.0000,0.0000,0.0000,0.0779,0.9657,-0.0955,0.2282,4.4700,1.0400,-8.6500,0.0000,0.0000,0.0000
69904,0,0,1,0.0000,4.3726,7.1631,3.5596,6.3501,-0.0092,-0.0055,-0.4395,1.8018,-0.1891,9.7636,-0.2753,1.4343,-0.8545,0.0000,-0.1891,9.7636,-0.2753,1.4343,-0.8545,0.0000,9.7573,0.1192,0.3715,0.0071,0.0095,0.0010,0.7208,0.0114,-0.6931,0.0017,0.3758,-0.5440,-0.3938,-0.6384,9.7300,0.9400,0.9700,0.0000,0.0000,0.0000,0.4069,-0.5408,-0.3949,-0.6212,9.7600,0.5400,0.9800,0.0000,0.0000,0.0000,0.1413,-0.9562,-0.1730,-0.1888,3.9900,-2.0000,-8.7100,0.0000,0.0000,0.0000,0.6694,0.2964,-0.5814,0.3549,9.6900,-0.1100,1.4800,0.0000,0.0000,0.0000,0.5238,0.4494,-0.5129,0.5102,9.7500,-0.4600,0.7300,0.0000,0.0000,0.0000,0.0779,0.9657,-0.0955,0.2282,4.4900,1.0500,-8.6500,0.0000,0.0000,0.0000
69905,0,0,1,0.0000,4.3726,7.1631,3.5596,6.3501,-0.0146,-0.0073,-0.4395,1.8018,-0.1891,9.8234,-0.2514,1.2817,-0.8545,-0.0305,-0.1891,9.8234,-0.2514,1.2817,-0.8545,-0.0305,9.7573,0.1192,0.3715,0.0071,0.0095,0.0010,0.7208,0.0114,-0.6931,0.0017,0.3758,-0.5440,-0.3938,-0.6384,9.7100,0.9600,0.9900,0.0000,0.0000,0.0000,0.4068,-0.5408,-0.3949,-0.6212,9.7700,0.5800,1.0300,0.0000,0.0000,0.0000,0.1413,-0.9562,-0.1730,-0.1888,4.0100,-1.9800,-8.7200,0.0000,0.0000,0.0000,0.6694,0.2964,-0.5814,0.3549,9.6500,-0.1100,1.4700,0.0000,0.0000,0.0000,0.5238,0.4494,-0.5129,0.5102,9.7400,-0.4600,0.7100,0.0000,0.0000,0.0000,0.0779,0.9657,-0.0955,0.2282,4.4900,1.0500,-8.6500,0.0000,0.0000,0.0000
69906,0,0,1,0.0000,4.3726,7.1631,3.5596,6.3501,-0.0238,0.0366,-0.4395,1.8018,-0.1987,9.7731,-0.2945,1.3123,-0.8545,0.2136,-0.1987,9.7731,-0.2945,1.3123,-0.8545,0.2136,9.7732,0.1220,0.3851,0.0051,0.0097,0.0009,0.7208,0.0114,-0.6931,0.0017,0.3758,-0.5440,-0.3938,-0.6384,9.7200,0.9400,0.9900,0.0000,0.0000,0.0000,0.4068,-0.5408,-0.3949,-0.6212,9.7700,0.5800,1.0300,0.0000,0.0000,0.0000,0.1413,-0.9562,-0.1730,-0.1888,4.0000,-1.9600,-8.7200,0.0000,0.0000,0.0000,0.6693,0.2964,-0.5814,0.3548,9.6900,-0.1200,1.4900,0.0000,0.0000,0.0000,0.5238,0.4494,-0.5129,0.5102,9.7400,-0.4600,0.7100,0.0000,0.0000,0.0000,0.0779,0.9657,-0.0955,0.2282,4.4700,1.0400,-8.6500,0.0000,0.0000,0.0000
69907,0,0,1,0.0000,4.3726,7.1631,3.5596,6.3501,0.0146,0.0183,-0.4395,1.8018,-0.1844,9.8330,-0.2322,1.4038,-0.7935,0.1221,-0.1844,9.8330,-0.2322,1.4038,-0.7935,0.1221,9.7732,0.1220,0.3851,0.0051,0.0097,0.0009,0.7208,0.0114,-0.6931,0.0017,0.3758,-0.5440,-0.3938,-0.6384,9.7100,0.9500,0.9800,0.0000,0.0000,0.0000,0.4068,-0.5408,-0.3949,-0.6212,9.7700,0.6100,1.0700,0.0000,0.0000,0.0000,0.1413,-0.9562,-0.1730,-0.1888,4.0000,-1.9400,-8.7100,0.0000,0.0000,0.0000,0.6693,0.2965,-0.5814,0.3548,9.6700,-0.0900,1.5500,0.0000,0.0000,0.0000,0.5238,0.4494,-0.5129,0.5102,9.7500,-0.4500,0.6900,0.0000,0.0000,0.0000,0.0779,0.9657,-0.0955,0.2282,4.4600,1.0300,-8.6600,0.0000,0.0000,0.0000
69908,0,0,1,0.0000,4.3726,7.1631,3.5596,6.3501,0.0055,-0.0055,-0.4395,1.8018,-0.2155,9.7300,-0.2538,1.4648,-1.0376,0.0305,-0.2155,9.7300,-0.2538,1.4648,-1.0376,0.0305,9.7354,0.1351,0.3732,0.0091,0.0085,0.0001,0.7208,0.0114,-0.6931,0.0017,0.3758,-0.5440,-0.3937,-0.6384,9.7100,0.9800,0.9700,0.0000,0.0000,0.0000,0.4068,-0.5408,-0.3949,-0.6212,9.7600,0.6200,1.0900,0.0000,0.0000,0.0000,0.1413,-0.9562,-0.1730,-0.1889,4.0100,-1.9300,-8.7100,0.0000,0.0000,0.0000,0.6693,0.2965,-0.5814,0.3548,9.6700,-0.0900,1.5500,0.0000,0.0000,0.0000,0.5238,0.4494,-0.5129,0.5102,9.7400,-0.4600,0.6800,0.0000,0.0000,0.0000,0.0779,0.9657,-0.0955,0.2282,4.4600,1.0300,-8.6400,0.0000,0.0000,0.0000
69909,0,0,1,0.0000,4.3945,7.1631,3.5815,6.3501,0.0165,0.0110,-0.4395,1.8018,-0.1867,9.7827,-0.2346,1.4038,-0.7629,0.0000,-0.1867,9.7827,-0.2346,1.4038,-0.7629,0.0000,9.7354,0.1351,0.3732,0.0091,0.0085,0.0001,0.7208,0.0114,-0.6931,0.0017,0.3758,-0.5440,-0.3937,-0.6384,9.7100,0.9800,0.9700,0.0000,0.0000,0.0000,0.4068,-0.5408,-0.3949,-0.6212,9.7400,0.6200,1.0200,0.0000,0.0000,0.0000,0.1413,-0.9562,-0.1730,-0.1889,4.0300,-1.9600,-8.7100,0.0000,0.0000,0.0000,0.6693,0.2965,-0.5814,0.3549,9.6700,-0.1100,1.5200,0.0000,0.0000,0.0000,0.5238,0.4494,-0.5129,0.5102,9.7400,-0.4300,0.7000,0.0000,0.0000,0.0000,0.0779,0.9657,-0.0955,0.2282,4.4600,1.0200,-8.6800,0.0000,0.0000,0.0000
69910,0,0,1,0.0000,4.3945,7.1631,3.5815,6.3501,-0.0092,0.0000,-0.4395,1.8018,-0.1915,9.7923,-0.2107,1.3428,-0.7019,-0.0610,-0.1915,9.7923,-0.2107,1.3428,-0.7019,-0.0610,9.7415,0.1342,0.3735,0.0051,0.0087,-0.0001,0.7208,0.0114,-0.6930,0.0017,0.3758,-0.5440,-0.3937,-0.6384,9.7000,0.9800,0.9900,0.0000,0.0000,0.0000,0.4068,-0.5408,-0.3949,-0.6212,9.7200,0.6000,1.0100,0.0000,0.0000,0.0000,0.1413,-0.9562,-0.1730,-0.1889,4.0300,-1.9600,-8.7100,0.0000,0.0000,0.0000,0.6693,0.2965,-0.5814,0.3549,9.6600,-0.1500,1.5100,0.0000,0.0000,0.0000,0.5238,0.4494,-0.5129,0.5102,9.7400,-0.4300,0.7000,0.0000,0.0000,0.0000,0.0779,0.9657,-0.0955,0.2282,4.4600,1.0200,-8.6800,0.0000,0.0000,0.0000
69911,0,0,1,0.0000,4.3945,7.1631,3.5815,6.3501,0.0073,-0.0018,-0.4395,1.8018,-0.1556,9.7779,-0.3232,1.5869,-1.1292,-0.0305,-0.1556,9.7779,-0.3232,1.5869,-1.1292,-0.0305,9.7415,0.1342,0.3735,0.0051,0.0087,-0.0001,0.7208,0.0114,-0.6930,0.0017,0.3758,-0.5440,-0.3937,-0.6384,9.6900,0.9800,0.9700,0.0000,0.0000,0.0000,0.4068,-0.5408,-0.3949,-0.6212,9.7200,0.6000,1.0100,0.0000,0.0000,0.0000,0.1413,-0.9562,-0.1730,-0.1889,3.9900,-2.0000,-8.7100,0.0000,0.0000,0.0000,0.6693,0.2966,-0.5813,0.3549,9.6200,-0.1700,1.4800,0.0000,0.0000,0.0000,0.5238,0.4494,-0.5129,0.5102,9.7700,-0.4500,0.6700,0.0000,0.0000,0.0000,0.0779,0.9657,-0.0955,0.2282,4.4800,1.0500,-8.6600,0.0000,0.0000,0.0000
69912,0,0,1,0.0000,4.3945,7.1631,3.5815,6.3501,0.0110,0.0000,-0.4395,1.8018,-0.1987,9.8019,-0.2634,1.5259,-0.8545,0.0610,-0.1987,9.8019,-0.2634,1.5259,-0.8545,0.0610,9.7415,0.1342,0.3735,0.0051,0.0087,-0.0001,0.7208,0.0114,-0.6930,0.0017,0.3758,-0.5440,-0.3937,-0.6385,9.7100,1.0200,0.9700,0.0000,0.0000,0.0000,0.4068,-0.5408,-0.3949,-0.6212,9.7100,0.6100,1.0000,0.0000,0.0000,0.0000,0.1413,-0.9562,-0.1730,-0.1889,4.0200,-1.9900,-8.7100,0.0000,0.0000,0.0000,0.6693,0.2966,-0.5813,0.3549,9.6300,-0.1700,1.4600,0.0000,0.0000,0.0000,0.5238,0.4494,-0.5129,0.5102,9.7800,-0.4400,0.6800,0.0000,0.0000,0.0000,0.0779,0.9657,-0.0955,0.2282,4.4800,1.0400,-8.6400,0.0000,0.0000,0.0000
69913,0,0,1,0.0000,4.3945,7.1631,3.5815,6.3501,-0.0128,-0.0073,-0.4395,1.8018,-0.2155,9.7588,-0.1724,1.5869,-0.7019,-0.0610,-0.2155,9.7588,-0.1724,1.5869,-0.7019,-0.0610,9.7419,0.1290,0.3851,0.0087,0.0070,-0.0025,0.7208,0.0114,-0.6930,0.0017,0.3758,-0.5440,-0.3937,-0.6385,9.6900,0.9900,0.9600,0.0000,0.0000,0.0000,0.4068,-0.5408,-0.3949,-0.6212,9.7200,0.6300,1.0400,0.0000,0.0000,0.0000,0.1413,-0.9562,-0.1730,-0.1889,4.0200,-1.9900,-8.7100,0.0000,0.0000,0.0000,0.6693,0.2966,-0.5813,0.3549,9.6300,-0.1700,1.4600,0.0000,0.0000,0.0000,0.5238,0.4494,-0.5129,0.5102,9.7900,-0.4500,0.6900,0.0000,0.0000,0.0000,0.0779,0.9657,-0.0955,0.2282,4.4800,1.0300,-8.6500,0.0000,0.0000,0.0000
69914,0,0,1,0.0000,4.3945,7.1631,3.5815,6.3501,-0.0073,-0.0092,-0.4395,1.8018,-0.1413,9.7875,-0.2490,1.4648,-1.0376,0.0610,-0.1413,9.7875,-0.2490,1.4648,-1.0376,0.0610,9.7419,0.1290,0.3851,0.0087,0.0070,-0.0025,0.7208,0.0114,-0.6930,0.0017,0.3758,-0.5440,-0.3937,-0.6385,9.6900,0.9900,0.9600,0.0000,0.0000,0.0000,0.4068,-0.5408,-0.3949,-0.6212,9.7200,0.6300,1.0400,0.0000,0.0000,0.0000,0.1413,-0.9562,-0.1730,-0.1889,4.0200,-1.9700,-8.7000,0.0000,0.0000,0.0000,0.6692,0.2967,-0.5813,0.3550,9.6600,-0.2000,1.4400,0.0000,0.0000,0.0000,0.5238,0.4494,-0.5129,0.5102,9.7700,-0.4900,0.6800,0.0000,0.0000,0.0000,0.0779,0.9657,-0.0955,0.2282,4.4900,1.0300,-8.6300,0.0000,0.0000,0.0000
69915,0,0,1,0.0000,4.3945,7.1631,3.5815,6.3501,-0.0055,-0.0201,-0.4395,1.8018,-0.2346,9.7636,-0.2490,1.5259,-1.1902,0.1526,-0.2346,9.7636,-0.2490,1.5259,-1.1902,0.1526,9.7801,0.1365,0.3635,0.0082,0.0064,-0.0002,0.7208,0.0114,-0.6930,0.0017,0.3758,-0.5440,-0.3937,-0.6385,9.7000,1.0000,0.9700,0.0000,0.0000,0.0000,0.4068,-0.5408,-0.3949,-0.6212,9.7200,0.5900,1.0400,0.0000,0.0000,0.0000,0.1413,-0.9562,-0.1730,-0.1889,4.0100,-1.9800,-8.7000,0.0000,0.0000,0.0000,0.6692,0.2967,-0.5813,0.3550,9.7200,-0.2100,1.4200,0.0000,0.0000,0.0000,0.5238,0.4494,-0.5129,0.5102,9.7600,-0.4900,0.6800,0.0000,0.0000,0.0000,0.0779,0.9657,-0.0955,0.2282,4.4900,1.0300,-8.6300,0.0000,0.0000,0.0000
69916,0,0,1,0.0000,4.3945,7.1631,3.5815,6.3501,0.0238,-0.0238,-0.4395,1.8018,-0.2346,9.7875,-0.2538,1.4343,-0.8850,0.0610,-0.2346,9.7875,-0.2538,1.4343,-0.8850,0.0610,9.7801,0.1365,0.3635,0.0082,0.0064,-0.0002,0.7208,0.0114,-0.6930,0.0017,0.3758,-0.5440,-0.3937,-0.6385,9.6800,1.0000,0.9900,0.0000,0.0000,0.0000,0.4068,-0.5408,-0.3949,-0.6212,9.7200,0.5900,1.0400,0.0000,0.0000,0.0000,0.1413,-0.9562,-0.1730,-0.1889,4.0100,-1.9700,-8.7100,0.0000,0.0000,0.0000,0.6692,0.2967,-0.5812,0.3550,9.6900,-0.2300,1.4400,0.0000,0.0000,0.0000,0.5238,0.4494,-0.5129,0.5102,9.7600,-0.4900,0.6800,0.0000,0.0000,0.0000,0.0779,0.9657,-0.0955,0.2282,4.4800,1.0500,-8.6500,0.0000,0.0000,0.0000
69917,0,0,1,0.0000,4.3945,7.1631,3.5815,6.3501,0.0055,0.0220,-0.4395,1.8018,-0.1915,9.8282,-0.2155,1.3123,-0.9766,-0.1831,-0.1915,9.8282,-0.2155,1.3123,-0.9766,-0.1831,9.7801,0.1365,0.3635,0.0082,0.0064,-0.0002,0.7208,0.0114,-0.6930,0.0017,0.3758,-0.5440,-0.3937,-0.6385,9.6900,1.0000,0.9700,0.0000,0.0000,0.0000,0.4068,-0.5408,-0.3949,-0.6212,9.7200,0.5700,1.0200,0.0000,0.0000,0.0000,0.1413,-0.9562,-0.1730,-0.1889,4.0100,-1.9600,-8.7000,0.0000,0.0000,0.0000,0.6692,0.2967,-0.5812,0.3551,9.6600,-0.2000,1.4300,0.0000,0.0000,0.0000,0.5238,0.4494,-0.5129,0.5103,9.7600,-0.5200,0.6900,0.0000,0.0000,0.0000,0.0779,0.9657,-0.0955,0.2282,4.4900,1.0300,-8.6600,0.0000,0.0000,0.0000
69918,0,0,1,0.0000,4.3945,7.1631,3.5815,6.3501,0.0128,-0.0128,-0.4395,1.8018,-0.1508,9.7875,-0.2442,1.4343,-1.2817,0.0610,-0.1508,9.7875,-0.2442,1.4343,-1.2817,0.0610,9.7733,0.1707,0.4041,0.0081,0.0074,0.0006,0.7208,0.0114,-0.6930,0.0017,0.3758,-0.5440,-0.3937,-0.6385,9.6900,1.0100,0.9700,0.0000,0.0000,0.0000,0.4068,-0.5409,-0.3949,-0.6211,9.7100,0.5300,1.0200,0.0000,0.0000,0.0000,0.1413,-0.9562,-0.1730,-0.1889,4.0100,-1.9600,-8.7000,0.0000,0.0000,0.0000,0.6692,0.2967,-0.5812,0.3551,9.6600,-0.2000,1.4300,0.0000,0.0000,0.0000,0.5238,0.4494,-0.5129,0.5103,9.7500,-0.5200,0.7100,0.0000,0.0000,0.0000,0.0779,0.9657,-0.0954,0.2282,4.4800,1.0400,-8.6500,0.0000,0.0000,0.0000
69919,0,0,1,0.0000,4.3945,7.1631,3.5815,6.3501,0.0183,-0.0037,-0.4395,1.8018,-0.1987,9.7444,-0.3017,1.6174,-1.0376,0.0305,-0.1987,9.7444,-0.3017,1.6174,-1.0376,0.0305,9.7733,0.1707,0.4041,0.0081,0.0074,0.0006,0.7208,0.0114,-0.6930,0.0017,0.3758,-0.5440,-0.3937,-0.6385,9.6900,1.0100,0.9700,0.0000,0.0000,0.0000,0.4068,-0.5409,-0.3949,-0.6211,9.7200,0.5200,1.0200,0.0000,0.0000,0.0000,0.1413,-0.9562,-0.1730,-0.1889,4.0100,-1.9800,-8.7200,0.0000,0.0000,0.0000,0.6692,0.2968,-0.5812,0.3551,9.6700,-0.2000,1.4400,0.0000,0.0000,0.0000,0.5238,0.4494,-0.5129,0.5103,9.7600,-0.5500,0.7200,0.0000,0.0000,0.0000,0.0779,0.9657,-0.0954,0.2282,4.5000,1.0300,-8.6400,0.0000,0.0000,0.0000
69920,0,0,1,0.0000,4.3945,7.1631,3.5815,6.3501,0.0073,0.0128,-0.4395,1.8018,-0.1413,9.8545,-0.2394,1.3733,-0.8850,0.0305,-0.1413,9.8545,-0.2394,1.3733,-0.8850,0.0305,9.7733,0.1648,0.3840,0.0092,0.0115,0.0016,0.7209,0.0114,-0.6930,0.0017,0.3758,-0.5440,-0.3937,-0.6385,9.7100,0.9900,0.9700,0.0000,0.0000,0.0000,0.4069,-0.5409,-0.3949,-0.6211,9.7200,0.5200,1.0400,0.0000,0.0000,0.0000,0.1413,-0.9562,-0.1730,-0.1889,4.0200,-1.9900,-8.7000,0.0000,0.0000,0.0000,0.6692,0.2968,-0.5812,0.3551,9.6600,-0.1800,1.4600,0.0000,0.0000,0.0000,0.5238,0.4494,-0.5129,0.5103,9.7400,-0.5500,0.6900,0.0000,0.0000,0.0000,0.0779,0.9657,-0.0954,0.2282,4.5000,1.0300,-8.6400,0.0000,0.0000,0.0000
69921,0,0,1,0.0000,4.3945,7.1631,3.5815,6.3501,0.0055,0.0055,-0.4395,1.8018,-0.1556,9.7827,-0.2538,1.3428,-1.0681,-0.0610,-0.1556,9.7827,-0.2538,1.3428,-1.0681,-0.0610,9.7733,0.1648,0.3840,0.0092,0.0115,0.0016,0.7209,0.0114,-0.6930,0.0017,0.3757,-0.5440,-0.3937,-0.6385,9.6700,1.0000,0.9700,0.0000,0.0000,0.0000,0.4069,-0.5409,-0.3949,-0.6211,9.7200,0.5200,1.0400,0.0000,0.0000,0.0000,0.1413,-0.9562,-0.1730,-0.1889,4.0100,-1.9900,-8.7200,0.0000,0.0000,0.0000,0.6692,0.2968,-0.5812,0.3551,9.6700,-0.1900,1.4400,0.0000,0.0000,0.0000,0.5238,0.4494,-0.5129,0.5103,9.7400,-0.5500,0.6900,0.0000,0.0000,0.0000,0.0779,0.9657,-0.0954,0.2282,4.4900,1.0100,-8.6300,0.0000,0.0000,0.0000
69922,0,0,1,0.0000,4.3945,7.1631,3.5815,6.3501,0.0073,-0.0201,-0.4395,1.8018,-0.1987,9.7588,-0.2945,1.5869,-1.0986,0.0000,-0.1987,9.7588,-0.2945,1.5869,-1.0986,0.0000,9.7733,0.1648,0.3840,0.0092,0.0115,0.0016,0.7209,0.0114,-0.6930,0.0017,0.3757,-0.5440,-0.3937,-0.6385,9.6800,0.9900,0.9600,0.0000,0.0000,0.0000,0.4069,-0.5409,-0.3949,-0.6211,9.7100,0.5100,1.0100,0.0000,0.0000,0.0000,0.1413,-0.9562,-0.1730,-0.1889,3.9900,-1.9800,-8.7000,0.0000,0.0000,0.0000,0.6692,0.2968,-0.5812,0.3551,9.7100,-0.1600,1.4900,0.0000,0.0000,0.0000,0.5238,0.4494,-0.5129,0.5103,9.7500,-0.5700,0.6700,0.0000,0.0000,0.0000,0.0779,0.9657,-0.0954,0.2282,4.5000,1.0200,-8.6400,0.0000,0.0000,0.0000
69923,0,0,1,0.0000,4.3945,7.1631,3.5815,6.3501,0.0018,0.0000,-0.4395,1.8018,-0.1748,9.7683,-0.2682,1.4038,-1.0376,0.0305,-0.1748,9.7683,-0.2682,1.4038,-1.0376,0.0305,9.7415,0.1407,0.3582,0.0052,0.0086,0.0012,0.7209,0.0114,-0.6930,0.0018,0.3757,-0.5440,-0.3937,-0.6385,9.6800,0.9600,0.9400,0.0000,0.0000,0.0000,0.4069,-0.5409,-0.3949,-0.6211,9.7100,0.4800,1.0300,0.0000,0.0000,0.0000,0.1413,-0.9562,-0.1730,-0.1889,4.0300,-1.9900,-8.7000,0.0000,0.0000,0.0000,0.6692,0.2968,-0.5812,0.3551,9.6500,-0.1700,1.5000,0.0000,0.0000,0.0000,0.5238,0.4494,-0.5129,0.5103,9.7200,-0.5800,0.7000,0.0000,0.0000,0.0000,0.0779,0.9657,-0.0954,0.2282,4.5000,1.0400,-8.6300,0.0000,0.0000,0.0000
69924,0,0,1,0.0000,4.3945,7.1631,3.5815,6.3501,0.0256,-0.0201,-0.4395,1.8018,-0.1365,9.8234,-0.2729,1.4648,-1.0376,0.0000,-0.1365,9.8234,-0.2729,1.4648,-1.0376,0.0000,9.7415,0.1407,0.3582,0.0052,0.0086,0.0012,0.7209,0.0114,-0.6930,0.0018,0.3757,-0.5440,-0.3937,-0.6385,9.6800,0.9600,0.9400,0.0000,0.0000,0.0000,0.4069,-0.5409,-0.3949,-0.6211,9.7000,0.4500,1.0100,0.0000,0.0000,0.0000,0.1413,-0.9562,-0.1730,-0.1889,4.0300,-1.9900,-8.7000,0.0000,0.0000,0.0000,0.6692,0.2968,-0.5812,0.3551,9.6500,-0.1700,1.5000,0.0000,0.0000,0.0000,0.5238,0.4495,-0.5129,0.5103,9.7200,-0.5800,0.6800,0.0000,0.0000,0.0000,0.0779,0.9657,-0.0954,0.2282,4.4900,1.0100,-8.6400,0.0000,0.0000,0.0000
69925,0,0,1,0.0000,4.3945,7.1631,3.5815,6.3501,0.0128,0.0000,-0.4395,1.8018,-0.1844,9.8186,-0.2610,1.6174,-1.2207,0.0305,-0.1844,9.8186,-0.2610,1.6174,-1.2207,0.0305,9.7710,0.1504,0.3860,0.0058,0.0037,-0.0002,0.7209,0.0115,-0.6930,0.0018,0.3757,-0.5440,-0.3937,-0.6385,9.6900,0.9700,0.9500,0.0000,0.0000,0.0000,0.4069,-0.5409,-0.3949,-0.6211,9.7000,0.4400,1.0000,0.0000,0.0000,0.0000,0.1413,-0.9562,-0.1730,-0.1889,4.0000,-1.9900,-8.7200,0.0000,0.0000,0.0000,0.6691,0.2969,-0.5812,0.3552,9.6800,-0.2000,1.4800,0.0000,0.0000,0.0000,0.5238,0.4495,-0.5128,0.5103,9.7300,-0.5700,0.6800,0.0000,0.0000,0.0000,0.0779,0.9657,-0.0954,0.2282,4.4900,1.0100,-8.6400,0.0000,0.0000,0.0000
69926,0,0,1,0.0000,4.3726,7.1631,3.5596,6.3501,0.0073,-0.0220,-0.4395,1.8018,-0.1389,9.8019,-0.2682,1.3733,-1.1902,0.0000,-0.1389,9.8019,-0.2682,1.3733,-1.1902,0.0000,9.7710,0.1504,0.3860,0.0058,0.0037,-0.0002,0.7209,0.0115,-0.6930,0.0018,0.3757,-0.5440,-0.3937,-0.6385,9.6900,0.9300,0.9300,0.0000,0.0000,0.0000,0.4069,-0.5409,-0.3949,-0.6211,9.7000,0.4400,1.0000,0.0000,0.0000,0.0000,0.1413,-0.9562,-0.1730,-0.1889,4.0100,-1.9800,-8.7000,0.0000,0.0000,0.0000,0.6691,0.2969,-0.5812,0.3552,9.6700,-0.1700,1.4500,0.0000,0.0000,0.0000,0.5238,0.4495,-0.5128,0.5103,9.7300,-0.5700,0.6800,0.0000,0.0000,0.0000,0.0779,0.9657,-0.0954,0.2282,4.5000,1.0100,-8.6500,0.0000,0.0000,0.0000
69927,0,0,1,0.0000,4.3726,7.1631,3.5596,6.3501,0.0110,-0.0165,-0.4395,1.8018,-0.1915,9.8019,-0.2155,1.2512,-1.0986,-0.1831,-0.1915,9.8019,-0.2155,1.2512,-1.0986,-0.1831,9.7710,0.1504,0.3860,0.0058,0.0037,-0.0002,0.7209,0.0115,-0.6930,0.0018,0.3757,-0.5440,-0.3937,-0.6385,9.6800,0.9400,0.9300,0.0000,0.0000,0.0000,0.4069,-0.5409,-0.3949,-0.6211,9.7000,0.4400,0.9800,0.0000,0.0000,0.0000,0.1413,-0.9562,-0.1730,-0.1889,4.0200,-1.9900,-8.7100,0.0000,0.0000,0.0000,0.6691,0.2969,-0.5812,0.3552,9.6700,-0.1600,1.4300,0.0000,0.0000,0.0000,0.5238,0.4495,-0.5128,0.5103,9.7300,-0.5800,0.6800,0.0000,0.0000,0.0000,0.0779,0.9657,-0.0954,0.2282,4.4800,1.0500,-8.6400,0.0000,0.0000,0.0000
69928,0,0,1,0.0000,4.3726,7.1631,3.5596,6.3501,-0.0183,0.0110,-0.4395,1.8018,-0.1604,9.7300,-0.2658,1.5869,-1.1292,0.0610,-0.1604,9.7300,-0.2658,1.5869,-1.1292,0.0610,9.7933,0.1680,0.3598,0.0058,0.0087,-0.0002,0.7209,0.0115,-0.6929,0.0018,0.3757,-0.5440,-0.3937,-0.6385,9.6700,0.9400,0.9200,0.0000,0.0000,0.0000,0.4069,-0.5409,-0.3949,-0.6211,9.7200,0.4400,1.0000,0.0000,0.0000,0.0000,0.1413,-0.9562,-0.1730,-0.1889,4.0000,-1.9800,-8.6900,0.0000,0.0000,0.0000,0.6691,0.2969,-0.5812,0.3552,9.6700,-0.1800,1.4200,0.0000,0.0000,0.0000,0.5237,0.4495,-0.5128,0.5104,9.7500,-0.5900,0.6800,0.0000,0.0000,0.0000,0.0779,0.9657,-0.0954,0.2282,4.5000,1.0200,-8.6300,0.0000,0.0000,0.0000
69929,0,0,1,0.0000,4.3506,7.1411,3.5596,6.3501,0.0073,-0.0073,-0.4395,1.8018,-0.1772,9.7683,-0.2729,1.5259,-1.1597,0.0610,-0.1772,9.7683,-0.2729,1.5259,-1.1597,0.0610,9.7933,0.1680,0.3598,0.0058,0.0087,-0.0002,0.7209,0.0115,-0.6929,0.0018,0.3757,-0.5440,-0.3937,-0.6385,9.6700,0.9400,0.9200,0.0000,0.0000,0.0000,0.4069,-0.5409,-0.3949,-0.6211,9.7100,0.4300,0.9800,0.0000,0.0000,0.0000,0.1413,-0.9562,-0.1730,-0.1889,4.0000,-1.9800,-8.6900,0.0000,0.0000,0.0000,0.6691,0.2969,-0.5812,0.3552,9.6700,-0.1800,1.4200,0.0000,0.0000,0.0000,0.5237,0.4495,-0.5128,0.5104,9.7300,-0.6000,0.6800,0.0000,0.0000,0.0000,0.0779,0.9657,-0.0954,0.2282,4.5000,1.0100,-8.6500,0.0000,0.0000,0.0000
69930,0,0,1,0.0000,4.3506,7.1411,3.5596,6.3501,-0.0073,-0.0037,-0.4395,1.8018,-0.1556,9.8019,-0.2562,1.2207,-1.2512,0.0000,-0.1556,9.8019,-0.2562,1.2207,-1.2512,0.0000,9.7886,0.1809,0.3732,0.0101,0.0060,-0.0007,0.7209,0.0115,-0.6929,0.0018,0.3757,-0.5440,-0.3937,-0.6385,9.6800,0.9200,0.9100,0.0000,0.0000,0.0000,0.4069,-0.5409,-0.3949,-0.6211,9.7100,0.4300,0.9600,0.0000,0.0000,0.0000,0.1413,-0.9562,-0.1730,-0.1889,4.0100,-1.9900,-8.7200,0.0000,0.0000,0.0000,0.6691,0.2969,-0.5812,0.3552,9.6800,-0.1800,1.4000,0.0000,0.0000,0.0000,0.5237,0.4495,-0.5128,0.5104,9.7300,-0.6000,0.6800,0.0000,0.0000,0.0000,0.0779,0.9657,-0.0954,0.2282,4.5000,1.0100,-8.6500,0.0000,0.0000,0.0000
69931,0,0,1,0.0000,4.3506,7.1411,3.5596,6.3501,-0.0183,-0.0110,-0.4395,1.8018,-0.2107,9.7540,-0.2729,1.4038,-1.0681,0.2441,-0.2107,9.7540,-0.2729,1.4038,-1.0681,0.2441,9.7886,0.1809,0.3732,0.0101,0.0060,-0.0007,0.7209,0.0115,-0.6929,0.0018,0.3757,-0.5440,-0.3937,-0.6385,9.7100,0.9300,0.9100,0.0000,0.0000,0.0000,0.4069,-0.5409,-0.3949,-0.6211,9.7100,0.4300,0.9600,0.0000,0.0000,0.0000,0.1413,-0.9562,-0.1730,-0.1889,4.0100,-1.9800,-8.7000,0.0000,0.0000,0.0000,0.6691,0.2969,-0.5812,0.3552,9.6800,-0.1600,1.4200,0.0000,0.0000,0.0000,0.5237,0.4495,-0.5128,0.5104,9.7300,-0.5800,0.6900,0.0000,0.0000,0.0000,0.0779,0.9657,-0.0954,0.2282,4.5000,1.0100,-8.6500,0.0000,0.0000,0.0000
69932,0,0,1,0.0000,4.3506,7.1411,3.5596,6.3501,0.0073,-0.0092,-0.4395,1.8018,-0.1867,9.7875,-0.2634,1.2817,-0.9766,0.0305,-0.1867,9.7875,-0.2634,1.2817,-0.9766,0.0305,9.7886,0.1809,0.3732,0.0101,0.0060,-0.0007,0.7209,0.0115,-0.6929,0.0018,0.3757,-0.5440,-0.3937,-0.6385,9.6800,0.9200,0.9200,0.0000,0.0000,0.0000,0.4069,-0.5409,-0.3949,-0.6211,9.6900,0.4300,0.9500,0.0000,0.0000,0.0000,0.1413,-0.9562,-0.1730,-0.1889,4.0200,-1.9800,-8.6900,0.0000,0.0000,0.0000,0.6691,0.2969,-0.5813,0.3552,9.6900,-0.1300,1.4500,0.0000,0.0000,0.0000,0.5237,0.4495,-0.5128,0.5104,9.7300,-0.5700,0.6700,0.0000,0.0000,0.0000,0.0779,0.9657,-0.0954,0.2282,4.4800,1.0100,-8.6600,0.0000,0.0000,0.0000
69933,0,0,1,0.0000,4.3506,7.1411,3.5596,6.3501,0.0146,0.0000,-0.4395,1.8018,-0.2059,9.7875,-0.2370,1.1902,-1.0376,0.0610,-0.2059,9.7875,-0.2370,1.1902,-1.0376,0.0610,9.8165,0.1836,0.3781,0.0115,0.0067,0.0038,0.7209,0.0115,-0.6929,0.0018,0.3757,-0.5440,-0.3937,-0.6385,9.6900,0.9200,0.9100,0.0000,0.0000,0.0000,0.4069,-0.5409,-0.3949,-0.6211,9.7000,0.4500,0.9400,0.0000,0.0000,0.0000,0.1413,-0.9562,-0.1730,-0.1889,4.0200,-1.9900,-8.6900,0.0000,0.0000,0.0000,0.6691,0.2969,-0.5813,0.3552,9.6900,-0.1300,1.4500,0.0000,0.0000,0.0000,0.5237,0.4495,-0.5128,0.5104,9.7300,-0.5700,0.6700,0.0000,0.0000,0.0000,0.0779,0.9657,-0.0954,0.2282,4.4700,1.0100,-8.6500,0.0000,0.0000,0.0000
69934,0,0,1,0.0000,4.3506,7.1411,3.5596,6.3501,-0.0165,0.0073,-0.4395,1.8018,-0.1844,9.8521,-0.2921,1.2207,-1.0071,0.1221,-0.1844,9.8521,-0.2921,1.2207,-1.0071,0.1221,9.8165,0.1836,0.3781,0.0115,0.0067,0.0038,0.7209,0.0115,-0.6929,0.0018,0.3757,-0.5440,-0.3937,-0.6385,9.6900,0.9200,0.9100,0.0000,0.0000,0.0000,0.4069,-0.5409,-0.3949,-0.6210,9.7000,0.4700,0.9500,0.0000,0.0000,0.0000,0.1413,-0.9562,-0.1730,-0.1889,4.0200,-1.9900,-8.6900,0.0000,0.0000,0.0000,0.6691,0.2969,-0.5813,0.3552,9.6900,-0.1300,1.4500,0.0000,0.0000,0.0000,0.5237,0.4495,-0.5128,0.5104,9.7500,-0.5300,0.6700,0.0000,0.0000,0.0000,0.0779,0.9657,-0.0954,0.2282,4.4900,1.0200,-8.6500,0.0000,0.0000,0.0000
69935,0,0,1,0.0000,4.3506,7.1411,3.5596,6.3501,-0.0092,-0.0165,-0.4395,1.8018,-0.1844,9.8617,-0.2538,1.1902,-0.8850,0.3052,-0.1844,9.8617,-0.2538,1.1902,-0.8850,0.3052,9.8093,0.1676,0.3815,0.0099,0.0015,-0.0016,0.7209,0.0115,-0.6929,0.0018,0.3757,-0.5440,-0.3937,-0.6385,9.6900,0.9400,0.9100,0.0000,0.0000,0.0000,0.4069,-0.5409,-0.3949,-0.6210,9.7100,0.4600,0.9000,0.0000,0.0000,0.0000,0.1413,-0.9562,-0.1730,-0.1889,4.0000,-1.9800,-8.7100,0.0000,0.0000,0.0000,0.6691,0.2969,-0.5813,0.3552,9.7300,-0.1300,1.4700,0.0000,0.0000,0.0000,0.5237,0.4496,-0.5128,0.5104,9.7700,-0.5300,0.6900,0.0000,0.0000,0.0000,0.0779,0.9657,-0.0954,0.2282,4.4900,1.0200,-8.6500,0.0000,0.0000,0.0000
69936,0,0,1,0.0000,4.3506,7.1411,3.5596,6.3501,-0.0165,-0.0055,-0.4395,1.8018,-0.1772,9.7875,-0.2490,1.3123,-1.1597,0.1831,-0.1772,9.7875,-0.2490,1.3123,-1.1597,0.1831,9.8093,0.1676,0.3815,0.0099,0.0015,-0.0016,0.7209,0.0115,-0.6929,0.0018,0.3757,-0.5440,-0.3937,-0.6385,9.6800,0.9200,0.9100,0.0000,0.0000,0.0000,0.4069,-0.5409,-0.3949,-0.6210,9.7100,0.4600,0.9000,0.0000,0.0000,0.0000,0.1413,-0.9562,-0.1730,-0.1889,4.0100,-1.9600,-8.7000,0.0000,0.0000,0.0000,0.6691,0.2969,-0.5813,0.3552,9.7300,-0.1400,1.4200,0.0000,0.0000,0.0000,0.5237,0.4496,-0.5128,0.5104,9.7700,-0.5300,0.6900,0.0000,0.0000,0.0000,0.0779,0.9657,-0.0954,0.2282,4.4800,1.0400,-8.6300,0.0000,0.0000,0.0000
69937,0,0,1,0.0000,4.3506,7.1411,3.5596,6.3501,0.0073,-0.0037,-0.4395,1.8018,-0.2251,9.7636,-0.2538,1.2817,-0.9460,0.0916,-0.2251,9.7636,-0.2538,1.2817,-0.9460,0.0916,9.8093,0.1676,0.3815,0.0099,0.0015,-0.0016,0.7209,0.0115,-0.6929,0.0018,0.3757,-0.5440,-0.3937,-0.6385,9.7000,0.9100,0.9100,0.0000,0.0000,0.0000,0.4070,-0.5408,-0.3949,-0.6210,9.6800,0.4700,0.9200,0.0000,0.0000,0.0000,0.1413,-0.9562,-0.1730,-0.1889,4.0200,-1.9600,-8.7100,0.0000,0.0000,0.0000,0.6691,0.2969,-0.5813,0.3552,9.7100,-0.1400,1.4300,0.0000,0.0000,0.0000,0.5237,0.4496,-0.5127,0.5104,9.7500,-0.4900,0.6800,0.0000,0.0000,0.0000,0.0779,0.9657,-0.0954,0.2282,4.5000,1.0200,-8.6500,0.0000,0.0000,0.0000
69938,0,0,1,0.0000,4.3506,7.1411,3.5596,6.3501,-0.0092,-0.0311,-0.4395,1.8018,-0.1652,9.8593,-0.2083,1.3123,-1.0071,0.3967,-0.1652,9.8593,-0.2083,1.3123,-1.0071,0.3967,9.8038,0.1401,0.3375,0.0114,0.0061,-0.0008,0.7209,0.0115,-0.6929,0.0018,0.3757,-0.5440,-0.3937,-0.6385,9.6900,0.8900,0.9100,0.0000,0.0000,0.0000,0.4070,-0.5408,-0.3949,-0.6210,9.6900,0.4500,0.9100,0.0000,0.0000,0.0000,0.1413,-0.9562,-0.1730,-0.1889,4.0000,-1.9500,-8.7100,0.0000,0.0000,0.0000,0.6691,0.2969,-0.5813,0.3552,9.7100,-0.1400,1.4300,0.0000,0.0000,0.0000,0.5237,0.4496,-0.5127,0.5104,9.7300,-0.4800,0.6800,0.0000,0.0000,0.0000,0.0779,0.9657,-0.0954,0.2282,4.4900,1.0300,-8.6400,0.0000,0.0000,0.0000
69939,0,0,1,0.0000,4.3506,7.1411,3.5596,6.3501,0.0146,0.0037,-0.4395,1.8018,-0.2322,9.8114,-0.2562,1.3733,-1.2207,0.2441,-0.2322,9.8114,-0.2562,1.3733,-1.2207,0.2441,9.8038,0.1401,0.3375,0.0114,0.0061,-0.0008,0.7209,0.0115,-0.6929,0.0018,0.3757,-0.5440,-0.3937,-0.6385,9.6900,0.8900,0.9100,0.0000,0.0000,0.0000,0.4070,-0.5408,-0.3949,-0.6210,9.7200,0.4800,0.9300,0.0000,0.0000,0.0000,0.1412,-0.9562,-0.1730,-0.1889,4.0100,-1.9600,-8.7000,0.0000,0.0000,0.0000,0.6691,0.2969,-0.5813,0.3552,9.6400,-0.1500,1.4100,0.0000,0.0000,0.0000,0.5237,0.4496,-0.5127,0.5104,9.7300,-0.4800,0.6800,0.0000,0.0000,0.0000,0.0778,0.9657,-0.0954,0.2282,4.4700,1.0200,-8.6500,0.0000,0.0000,0.0000
69940,0,0,1,0.0000,4.3506,7.1411,3.5596,6.3501,0.0146,0.0183,-0.4395,1.8018,-0.2035,9.8474,-0.2873,1.2817,-1.0071,0.1831,-0.2035,9.8474,-0.2873,1.2817,-1.0071,0.1831,9.8015,0.1554,0.3620,0.0127,0.0049,0.0001,0.7209,0.0116,-0.6929,0.0019,0.3757,-0.5440,-0.3937,-0.6385,9.7000,0.8900,0.9100,0.0000,0.0000,0.0000,0.4070,-0.5408,-0.3949,-0.6210,9.7400,0.4600,0.9400,0.0000,0.0000,0.0000,0.1412,-0.9562,-0.1730,-0.1889,4.0100,-1.9600,-8.7000,0.0000,0.0000,0.0000,0.6691,0.2969,-0.5813,0.3552,9.6900,-0.1400,1.3900,0.0000,0.0000,0.0000,0.5237,0.4496,-0.5127,0.5104,9.7300,-0.4500,0.6700,0.0000,0.0000,0.0000,0.0778,0.9657,-0.0954,0.2282,4.4700,1.0200,-8.6500,0.0000,0.0000,0.0000
69941,0,0,1,0.0000,4.3506,7.1411,3.5596,6.3501,-0.0092,-0.0146,-0.4395,1.8018,-0.2011,9.8904,-0.2610,1.1597,-1.0376,0.2747,-0.2011,9.8904,-0.2610,1.1597,-1.0376,0.2747,9.8015,0.1554,0.3620,0.0127,0.0049,0.0001,0.7209,0.0116,-0.6929,0.0019,0.3757,-0.5440,-0.3937,-0.6385,9.7100,0.9100,0.9000,0.0000,0.0000,0.0000,0.4070,-0.5408,-0.3949,-0.6210,9.7400,0.4600,0.9400,0.0000,0.0000,0.0000,0.1412,-0.9562,-0.1730,-0.1889,4.0200,-1.9800,-8.7100,0.0000,0.0000,0.0000,0.6691,0.2969,-0.5813,0.3552,9.6600,-0.1300,1.3800,0.0000,0.0000,0.0000,0.5237,0.4496,-0.5127,0.5104,9.7300,-0.4500,0.6700,0.0000,0.0000,0.0000,0.0778,0.9657,-0.0954,0.2282,4.4800,1.0200,-8.6500,0.0000,0.0000,0.0000
69942,0,0,1,0.0000,4.3506,7.1411,3.5596,6.3501,0.0220,0.0128,-0.4395,1.8018,-0.1963,9.8019,-0.2825,1.1597,-1.1292,0.0916,-0.1963,9.8019,-0.2825,1.1597,-1.1292,0.0916,9.8015,0.1554,0.3620,0.0127,0.0049,0.0001,0.7209,0.0116,-0.6929,0.0019,0.3757,-0.5440,-0.3937,-0.6385,9.7100,0.9000,0.9300,0.0000,0.0000,0.0000,0.4070,-0.5408,-0.3949,-0.6210,9.7200,0.4800,0.9400,0.0000,0.0000,0.0000,0.1412,-0.9562,-0.1730,-0.1889,4.0200,-1.9700,-8.7200,0.0000,0.0000,0.0000,0.6691,0.2969,-0.5813,0.3552,9.7100,-0.1500,1.3600,0.0000,0.0000,0.0000,0.5237,0.4496,-0.5127,0.5104,9.7300,-0.4500,0.6800,0.0000,0.0000,0.0000,0.0779,0.9657,-0.0954,0.2282,4.4600,1.0300,-8.6400,0.0000,0.0000,0.0000
69943,0,0,1,0.0000,4.3506,7.1411,3.5596,6.3501,0.0238,-0.0055,-0.4395,1.8018,-0.2227,9.8067,-0.2849,1.2207,-1.0376,0.2136,-0.2227,9.8067,-0.2849,1.2207,-1.0376,0.2136,9.8040,0.1331,0.3404,0.0029,0.0061,0.0006,0.7209,0.0116,-0.6929,0.0019,0.3758,-0.5440,-0.3937,-0.6385,9.7200,0.9000,0.9400,0.0000,0.0000,0.0000,0.4070,-0.5408,-0.3949,-0.6210,9.7300,0.4700,0.9600,0.0000,0.0000,0.0000,0.1412,-0.9562,-0.1730,-0.1889,4.0200,-1.9700,-8.7200,0.0000,0.0000,0.0000,0.6691,0.2969,-0.5813,0.3552,9.7100,-0.1500,1.3600,0.0000,0.0000,0.0000,0.5237,0.4496,-0.5127,0.5104,9.7300,-0.4300,0.6900,0.0000,0.0000,0.0000,0.0779,0.9657,-0.0954,0.2282,4.4800,1.0400,-8.6300,0.0000,0.0000,0.0000
69944,0,0,1,0.0000,4.3506,7.1411,3.5596,6.3501,-0.0110,-0.0146,-0.4395,1.8018,-0.2131,9.8521,-0.2658,1.3123,-1.2817,0.4578,-0.2131,9.8521,-0.2658,1.3123,-1.2817,0.4578,9.8040,0.1331,0.3404,0.0029,0.0061,0.0006,0.7209,0.0116,-0.6929,0.0019,0.3758,-0.5440,-0.3937,-0.6385,9.7200,0.9000,0.9400,0.0000,0.0000,0.0000,0.4070,-0.5408,-0.3949,-0.6211,9.7300,0.4500,0.9200,0.0000,0.0000,0.0000,0.1412,-0.9562,-0.1730,-0.1889,3.9900,-1.9800,-8.7000,0.0000,0.0000,0.0000,0.6691,0.2969,-0.5813,0.3552,9.7200,-0.1500,1.4200,0.0000,0.0000,0.0000,0.5237,0.4496,-0.5127,0.5104,9.7500,-0.4300,0.7000,0.0000,0.0000,0.0000,0.0779,0.9657,-0.0954,0.2282,4.4900,1.0500,-8.6600,0.0000,0.0000,0.0000
69945,0,0,1,0.0000,4.3506,7.1411,3.5596,6.3501,-0.0238,-0.0073,-0.4395,1.8018,-0.2418,9.8521,-0.2538,1.1902,-1.3123,0.3662,-0.2418,9.8521,-0.2538,1.1902,-1.3123,0.3662,9.7864,0.1599,0.3340,0.0052,0.0019,-0.0004,0.7209,0.0116,-0.6929,0.0019,0.3758,-0.5440,-0.3937,-0.6385,9.7200,0.9100,0.9400,0.0000,0.0000,0.0000,0.4070,-0.5408,-0.3949,-0.6211,9.7300,0.4500,0.9400,0.0000,0.0000,0.0000,0.1412,-0.9562,-0.1730,-0.1889,3.9900,-1.9800,-8.7100,0.0000,0.0000,0.0000,0.6691,0.2969,-0.5812,0.3552,9.7200,-0.1600,1.4500,0.0000,0.0000,0.0000,0.5237,0.4496,-0.5127,0.5104,9.7500,-0.4300,0.7000,0.0000,0.0000,0.0000,0.0779,0.9657,-0.0954,0.2282,4.4800,1.0200,-8.6400,0.0000,0.0000,0.0000
69946,0,0,1,0.0000,4.3506,7.1411,3.5596,6.3501,0.0201,0.0092,-0.4395,1.8018,-0.2825,9.8090,-0.2562,1.3123,-1.1292,0.4578,-0.2825,9.8090,-0.2562,1.3123,-1.1292,0.4578,9.7864,0.1599,0.3340,0.0052,0.0019,-0.0004,0.7209,0.0116,-0.6929,0.0019,0.3758,-0.5440,-0.3937,-0.6385,9.7000,0.9200,0.9400,0.0000,0.0000,0.0000,0.4070,-0.5408,-0.3949,-0.6211,9.7300,0.4500,0.9400,0.0000,0.0000,0.0000,0.1412,-0.9562,-0.1730,-0.1889,4.0100,-2.0000,-8.7100,0.0000,0.0000,0.0000,0.6691,0.2969,-0.5812,0.3552,9.6900,-0.2000,1.4700,0.0000,0.0000,0.0000,0.5237,0.4496,-0.5127,0.5104,9.7500,-0.4100,0.6900,0.0000,0.0000,0.0000,0.0779,0.9657,-0.0954,0.2282,4.4800,1.0200,-8.6400,0.0000,0.0000,0.0000
69947,0,0,1,0.0000,4.3506,7.1411,3.5596,6.3501,0.0146,0.0073,-0.4395,1.8018,-0.2418,9.7779,-0.2729,1.3428,-1.3733,0.2441,-0.2418,9.7779,-0.2729,1.3428,-1.3733,0.2441,9.7864,0.1599,0.3340,0.0052,0.0019,-0.0004,0.7209,0.0116,-0.6929,0.0019,0.3758,-0.5440,-0.3937,-0.6385,9.7200,0.8900,0.9500,0.0000,0.0000,0.0000,0.4070,-0.5408,-0.3949,-0.6211,9.7300,0.4400,0.9400,0.0000,0.0000,0.0000,0.1412,-0.9562,-0.1730,-0.1889,4.0100,-1.9700,-8.7100,0.0000,0.0000,0.0000,0.6691,0.2969,-0.5812,0.3552,9.6900,-0.2100,1.4500,0.0000,0.0000,0.0000,0.5237,0.4496,-0.5127,0.5104,9.7700,-0.4200,0.6800,0.0000,0.0000,0.0000,0.0779,0.9657,-0.0954,0.2282,4.4800,1.0200,-8.6500,0.0000,0.0000,0.0000
69948,0,0,1,0.0000,4.3506,7.1411,3.5596,6.3501,-0.0018,-0.0128,-0.4395,1.8018,-0.2514,9.7971,-0.2442,1.1597,-1.0071,0.3357,-0.2514,9.7971,-0.2442,1.1597,-1.0071,0.3357,9.7626,0.1292,0.3219,0.0031,-0.0007,0.0018,0.7209,0.0116,-0.6929,0.0019,0.3758,-0.5440,-0.3937,-0.6385,9.7300,0.9100,0.9600,0.0000,0.0000,0.0000,0.4070,-0.5408,-0.3949,-0.6211,9.7500,0.4400,0.9600,0.0000,0.0000,0.0000,0.1412,-0.9562,-0.1730,-0.1889,4.0100,-1.9700,-8.7100,0.0000,0.0000,0.0000,0.6691,0.2969,-0.5812,0.3552,9.6900,-0.2100,1.4500,0.0000,0.0000,0.0000,0.5237,0.4496,-0.5127,0.5104,9.7600,-0.3900,0.6800,0.0000,0.0000,0.0000,0.0779,0.9657,-0.0954,0.2282,4.4700,1.0300,-8.6500,0.0000,0.0000,0.0000
69949,0,0,1,0.0000,4.3506,7.1411,3.5596,6.3501,-0.0073,-0.0201,-0.4395,1.8018,-0.2658,9.8090,-0.2921,1.3428,-0.9460,0.4883,-0.2658,9.8090,-0.2921,1.3428,-0.9460,0.4883,9.7626,0.1292,0.3219,0.0031,-0.0007,0.0018,0.7209,0.0116,-0.6929,0.0019,0.3758,-0.5440,-0.3937,-0.6385,9.7400,0.9000,0.9500,0.0000,0.0000,0.0000,0.4070,-0.5408,-0.3949,-0.6211,9.7300,0.4600,0.9700,0.0000,0.0000,0.0000,0.1412,-0.9562,-0.1730,-0.1889,3.9900,-1.9900,-8.7100,0.0000,0.0000,0.0000,0.6690,0.2970,-0.5812,0.3552,9.6900,-0.2000,1.4800,0.0000,0.0000,0.0000,0.5237,0.4496,-0.5127,0.5104,9.7600,-0.4100,0.6900,0.0000,0.0000,0.0000,0.0779,0.9657,-0.0954,0.2282,4.4900,1.0400,-8.6400,0.0000,0.0000,0.0000
69950,0,0,1,0.0000,4.3506,7.1411,3.5596,6.3501,0.0330,0.0037,-0.4395,1.8018,-0.2849,9.8210,-0.2682,1.5259,-1.1292,0.1831,-0.2849,9.8210,-0.2682,1.5259,-1.1292,0.1831,9.7626,0.1292,0.3219,0.0031,-0.0007,0.0018,0.7209,0.0116,-0.6929,0.0019,0.3758,-0.5440,-0.3937,-0.6385,9.7400,0.9000,0.9500,0.0000,0.0000,0.0000,0.4069,-0.5409,-0.3949,-0.6211,9.7600,0.4800,0.9600,0.0000,0.0000,0.0000,0.1412,-0.9562,-0.1730,-0.1889,4.0000,-1.9700,-8.7200,0.0000,0.0000,0.0000,0.6690,0.2970,-0.5812,0.3553,9.6700,-0.2000,1.4600,0.0000,0.0000,0.0000,0.5237,0.4496,-0.5127,0.5104,9.7600,-0.4100,0.6900,0.0000,0.0000,0.0000,0.0779,0.9657,-0.0954,0.2282,4.4900,1.0400,-8.6400,0.0000,0.0000,0.0000
69951,0,0,1,0.0000,4.3506,7.1411,3.5596,6.3501,-0.0055,-0.0128,-0.4395,1.8018,-0.2849,9.7827,-0.2658,1.3123,-1.2512,0.3052,-0.2849,9.7827,-0.2658,1.3123,-1.2512,0.3052,9.7918,0.1270,0.3207,0.0040,0.0038,0.0018,0.7209,0.0116,-0.6929,0.0019,0.3758,-0.5440,-0.3937,-0.6385,9.7200,0.9100,0.9500,0.0000,0.0000,0.0000,0.4069,-0.5409,-0.3949,-0.6211,9.7600,0.4800,0.9600,0.0000,0.0000,0.0000,0.1412,-0.9562,-0.1730,-0.1889,4.0000,-1.9800,-8.7100,0.0000,0.0000,0.0000,0.6690,0.2970,-0.5812,0.3553,9.6700,-0.1800,1.5200,0.0000,0.0000,0.0000,0.5237,0.4496,-0.5127,0.5104,9.7500,-0.4300,0.6800,0.0000,0.0000,0.0000,0.0779,0.9657,-0.0954,0.2282,4.4800,1.0300,-8.6500,0.0000,0.0000,0.0000
69952,0,0,1,0.0000,4.3506,7.1411,3.5596,6.3501,-0.0092,-0.0165,-0.4395,1.8018,-0.2610,9.7875,-0.2849,1.0986,-0.9766,0.3052,-0.2610,9.7875,-0.2849,1.0986,-0.9766,0.3052,9.7918,0.1270,0.3207,0.0040,0.0038,0.0018,0.7209,0.0116,-0.6929,0.0019,0.3758,-0.5440,-0.3937,-0.6385,9.7300,0.8900,0.9700,0.0000,0.0000,0.0000,0.4069,-0.5409,-0.3949,-0.6211,9.7300,0.4800,0.9700,0.0000,0.0000,0.0000,0.1412,-0.9562,-0.1730,-0.1889,4.0200,-1.9600,-8.7000,0.0000,0.0000,0.0000,0.6690,0.2970,-0.5812,0.3553,9.6400,-0.1600,1.5900,0.0000,0.0000,0.0000,0.5237,0.4496,-0.5127,0.5105,9.7500,-0.4500,0.6800,0.0000,0.0000,0.0000,0.0779,0.9657,-0.0954,0.2282,4.5000,1.0300,-8.6400,0.0000,0.0000,0.0000
69953,0,0,1,0.0000,4.3506,7.1411,3.5596,6.3501,-0.0018,0.0073,-0.4395,1.8018,-0.2777,9.7971,-0.2753,1.3733,-1.1292,0.3052,-0.2777,9.7971,-0.2753,1.3733,-1.1292,0.3052,9.7697,0.1248,0.3336,0.0016,-0.0002,0.0013,0.7209,0.0116,-0.6929,0.0019,0.3758,-0.5440,-0.3937,-0.6385,9.7200,0.9000,0.9600,0.0000,0.0000,0.0000,0.4069,-0.5409,-0.3949,-0.6211,9.7500,0.4900,0.9700,0.0000,0.0000,0.0000,0.1412,-0.9562,-0.1730,-0.1889,4.0100,-1.9700,-8.7000,0.0000,0.0000,0.0000,0.6690,0.2970,-0.5812,0.3553,9.6900,-0.1600,1.5800,0.0000,0.0000,0.0000,0.5237,0.4496,-0.5127,0.5105,9.7500,-0.4600,0.7000,0.0000,0.0000,0.0000,0.0779,0.9657,-0.0954,0.2282,4.4700,1.0300,-8.6400,0.0000,0.0000,0.0000
69954,0,0,1,0.0000,4.3726,7.1631,3.5596,6.3501,0.0037,0.0000,-0.4395,1.8018,-0.2705,9.7923,-0.2705,1.4038,-1.1902,0.3052,-0.2705,9.7923,-0.2705,1.4038,-1.1902,0.3052,9.7697,0.1248,0.3336,0.0016,-0.0002,0.0013,0.7209,0.0116,-0.6929,0.0019,0.3758,-0.5440,-0.3937,-0.6385,9.7200,0.8900,0.9500,0.0000,0.0000,0.0000,0.4069,-0.5409,-0.3949,-0.6211,9.7500,0.5000,0.9900,0.0000,0.0000,0.0000,0.1412,-0.9562,-0.1730,-0.1889,4.0100,-1.9700,-8.7000,0.0000,0.0000,0.0000,0.6690,0.2970,-0.5812,0.3553,9.6900,-0.1600,1.5800,0.0000,0.0000,0.0000,0.5237,0.4496,-0.5127,0.5105,9.7400,-0.4500,0.7000,0.0000,0.0000,0.0000,0.0779,0.9657,-0.0954,0.2282,4.4700,1.0300,-8.6600,0.0000,0.0000,0.0000
69955,0,0,1,0.0000,4.3726,7.1631,3.5596,6.3501,0.0000,0.0165,-0.4395,1.8018,-0.2849,9.7875,-0.2227,1.3123,-0.9766,0.2136,-0.2849,9.7875,-0.2227,1.3123,-0.9766,0.2136,9.7697,0.1248,0.3336,0.0016,-0.0002,0.0013,0.7209,0.0116,-0.6929,0.0019,0.3758,-0.5440,-0.3937,-0.6385,9.7200,0.8900,0.9500,0.0000,0.0000,0.0000,0.4069,-0.5409,-0.3949,-0.6211,9.7400,0.5000,0.9900,0.0000,0.0000,0.0000,0.1412,-0.9562,-0.1730,-0.1889,4.0000,-1.9900,-8.7200,0.0000,0.0000,0.0000,0.6690,0.2970,-0.5812,0.3553,9.6900,-0.1600,1.5600,0.0000,0.0000,0.0000,0.5237,0.4496,-0.5127,0.5105,9.7400,-0.4800,0.7000,0.0000,0.0000,0.0000,0.0779,0.9657,-0.0954,0.2282,4.4700,1.0300,-8.6600,0.0000,0.0000,0.0000
69956,0,0,1,0.0000,4.3726,7.1631,3.5596,6.3501,0.0037,-0.0055,-0.4395,1.8018,-0.2849,9.7636,-0.3184,1.3428,-1.2207,0.2136,-0.2849,9.7636,-0.3184,1.3428,-1.2207,0.2136,9.7829,0.1270,0.3218,0.0018,0.0034,0.0039,0.7209,0.0116,-0.6929,0.0019,0.3758,-0.5440,-0.3937,-0.6385,9.7100,0.8800,0.9600,0.0000,0.0000,0.0000,0.4069,-0.5409,-0.3949,-0.6211,9.7400,0.5000,0.9900,0.0000,0.0000,0.0000,0.1412,-0.9562,-0.1730,-0.1889,3.9800,-1.9900,-8.7200,0.0000,0.0000,0.0000,0.6690,0.2971,-0.5812,0.3553,9.6600,-0.2000,1.5000,0.0000,0.0000,0.0000,0.5237,0.4496,-0.5127,0.5105,9.7400,-0.4800,0.7000,0.0000,0.0000,0.0000,0.0778,0.9657,-0.0954,0.2282,4.4700,1.0300,-8.6500,0.0000,0.0000,0.0000
69957,0,0,1,0.0000,4.3726,7.1631,3.5596,6.3501,-0.0110,-0.0037,-0.4395,1.8018,-0.2394,9.8067,-0.2490,1.4648,-1.1597,0.0610,-0.2394,9.8067,-0.2490,1.4648,-1.1597,0.0610,9.7829,0.1270,0.3218,0.0018,0.0034,0.0039,0.7209,0.0116,-0.6929,0.0019,0.3758,-0.5440,-0.3937,-0.6385,9.7000,0.9200,0.9500,0.0000,0.0000,0.0000,0.4069,-0.5409,-0.3949,-0.6211,9.7300,0.5100,1.0000,0.0000,0.0000,0.0000,0.1412,-0.9562,-0.1730,-0.1889,4.0000,-1.9900,-8.7100,0.0000,0.0000,0.0000,0.6690,0.2971,-0.5812,0.3553,9.6200,-0.2400,1.4400,0.0000,0.0000,0.0000,0.5237,0.4496,-0.5127,0.5105,9.7400,-0.4800,0.7000,0.0000,0.0000,0.0000,0.0778,0.9657,-0.0954,0.2282,4.5000,1.0400,-8.6500,0.0000,0.0000,0.0000
69958,0,0,1,0.0000,4.3726,7.1631,3.5596,6.3501,-0.0073,0.0055,-0.4395,1.8018,-0.2777,9.7540,-0.2801,1.4038,-1.1292,0.0000,-0.2777,9.7540,-0.2801,1.4038,-1.1292,0.0000,9.7719,0.1142,0.3396,-0.0017,0.0004,0.0031,0.7209,0.0116,-0.6929,0.0019,0.3758,-0.5440,-0.3937,-0.6385,9.7200,0.8900,0.9500,0.0000,0.0000,0.0000,0.4069,-0.5409,-0.3949,-0.6211,9.7300,0.5100,0.9700,0.0000,0.0000,0.0000,0.1412,-0.9562,-0.1730,-0.1889,4.0200,-1.9700,-8.7000,0.0000,0.0000,0.0000,0.6690,0.2971,-0.5812,0.3553,9.6800,-0.2500,1.4200,0.0000,0.0000,0.0000,0.5237,0.4496,-0.5126,0.5105,9.7700,-0.5100,0.7200,0.0000,0.0000,0.0000,0.0778,0.9657,-0.0954,0.2282,4.4800,1.0200,-8.6400,0.0000,0.0000,0.0000
69959,0,0,1,0.0000,4.3726,7.1631,3.5596,6.3501,-0.0092,-0.0055,-0.4395,1.8018,-0.2442,9.7683,-0.2849,1.2817,-1.1597,0.2136,-0.2442,9.7683,-0.2849,1.2817,-1.1597,0.2136,9.7719,0.1142,0.3396,-0.0017,0.0004,0.0031,0.7209,0.0116,-0.6929,0.0019,0.3758,-0.5440,-0.3937,-0.6385,9.7200,0.9000,0.9600,0.0000,0.0000,0.0000,0.4069,-0.5409,-0.3948,-0.6211,9.7500,0.5100,1.0000,0.0000,0.0000,0.0000,0.1412,-0.9562,-0.1730,-0.1889,4.0200,-1.9700,-8.7000,0.0000,0.0000,0.0000,0.6690,0.2971,-0.5812,0.3553,9.6800,-0.2500,1.4200,0.0000,0.0000,0.0000,0.5236,0.4496,-0.5126,0.5105,9.7600,-0.5300,0.7100,0.0000,0.0000,0.0000,0.0779,0.9657,-0.0954,0.2282,4.4700,1.0400,-8.6500,0.0000,0.0000,0.0000
69960,0,0,1,0.0000,4.3726,7.1631,3.5596,6.3501,0.0220,-0.0128,-0.4395,1.8018,-0.2682,9.7588,-0.2993,1.3123,-1.0986,0.3052,-0.2682,9.7588,-0.2993,1.3123,-1.0986,0.3052,9.7719,0.1142,0.3396,-0.0017,0.0004,0.0031,0.7209,0.0116,-0.6929,0.0019,0.3758,-0.5440,-0.3937,-0.6385,9.7200,0.9000,0.9600,0.0000,0.0000,0.0000,0.4069,-0.5409,-0.3948,-0.6211,9.7600,0.5300,1.0100,0.0000,0.0000,0.0000,0.1412,-0.9562,-0.1730,-0.1889,4.0000,-1.9800,-8.7000,0.0000,0.0000,0.0000,0.6690,0.2971,-0.5811,0.3553,9.6700,-0.2400,1.4900,0.0000,0.0000,0.0000,0.5236,0.4497,-0.5126,0.5105,9.7700,-0.5400,0.7000,0.0000,0.0000,0.0000,0.0779,0.9657,-0.0954,0.2282,4.4700,1.0400,-8.6500,0.0000,0.0000,0.0000
69961,0,0,1,0.0000,4.3726,7.1631,3.5596,6.3501,-0.0018,0.0037,-0.4395,1.8018,-0.2490,9.7492,-0.3017,1.4343,-1.0681,0.2441,-0.2490,9.7492,-0.3017,1.4343,-1.0681,0.2441,9.7719,0.1463,0.3614,0.0019,-0.0046,0.0021,0.7209,0.0116,-0.6929,0.0019,0.3758,-0.5440,-0.3937,-0.6385,9.7100,0.9100,0.9600,0.0000,0.0000,0.0000,0.4069,-0.5409,-0.3948,-0.6211,9.7600,0.5300,1.0100,0.0000,0.0000,0.0000,0.1413,-0.9562,-0.1730,-0.1889,4.0000,-1.9700,-8.7100,0.0000,0.0000,0.0000,0.6690,0.2972,-0.5811,0.3553,9.6700,-0.2200,1.4800,0.0000,0.0000,0.0000,0.5236,0.4497,-0.5126,0.5105,9.7700,-0.5400,0.7000,0.0000,0.0000,0.0000,0.0778,0.9657,-0.0954,0.2282,4.4600,1.0400,-8.6400,0.0000,0.0000,0.0000
69962,0,0,1,0.0000,4.3726,7.1631,3.5596,6.3501,-0.0183,-0.0201,-0.4395,1.8018,-0.2538,9.7875,-0.2346,1.2817,-1.1902,-0.0305,-0.2538,9.7875,-0.2346,1.2817,-1.1902,-0.0305,9.7719,0.1463,0.3614,0.0019,-0.0046,0.0021,0.7209,0.0116,-0.6929,0.0019,0.3758,-0.5440,-0.3937,-0.6385,9.7200,0.9000,0.9600,0.0000,0.0000,0.0000,0.4069,-0.5409,-0.3948,-0.6211,9.7700,0.5200,1.0500,0.0000,0.0000,0.0000,0.1413,-0.9562,-0.1730,-0.1889,4.0100,-1.9600,-8.7100,0.0000,0.0000,0.0000,0.6690,0.2972,-0.5811,0.3553,9.6400,-0.2100,1.5000,0.0000,0.0000,0.0000,0.5236,0.4497,-0.5126,0.5106,9.7600,-0.5600,0.7200,0.0000,0.0000,0.0000,0.0779,0.9657,-0.0954,0.2282,4.4800,1.0400,-8.6300,0.0000,0.0000,0.0000
