LoopCnt,H10Mode,H10AssistLevel,ImuHubConnected,LeftHipAngle,RightHipAngle,LeftThighAngle,RightThighAngle,LeftHipTorque,RightHipTorque,LeftHipMotorAngle,RightHipMotorAngle,LeftHipImuGlobalAccX,LeftHipImuGlobalAccY,LeftHipImuGlobalAccZ,LeftHipImuGlobalGyrX,LeftHipImuGlobalGyrY,LeftHipImuGlobalGyrZ,RightHipImuGlobalAccX,RightHipImuGlobalAccY,RightHipImuGlobalAccZ,RightHipImuGlobalGyrX,RightHipImuGlobalGyrY,RightHipImuGlobalGyrZ,HeadIMU_LocalAccX,HeadIMU_LocalAccY,HeadIMU_LocalAccZ,HeadIMU_LocalGyrX,HeadIMU_LocalGyrY,HeadIMU_LocalGyrZ,HeadIMU_QuatW,HeadIMU_QuatX,HeadIMU_QuatY,HeadIMU_QuatZ,Pelvis_IMU_QuatW,Pelvis_IMU_QuatX,Pelvis_IMU_QuatY,Pelvis_IMU_QuatZ,Pelvis_IMU_AccX,Pelvis_IMU_AccY,Pelvis_IMU_AccZ,Pelvis_IMU_GyrX,Pelvis_IMU_GyrY,Pelvis_IMU_GyrZ,L_Upperarm_IMU_QuatW,L_Upperarm_IMU_QuatX,L_Upperarm_IMU_QuatY,L_Upperarm_IMU_QuatZ,L_Upperarm_IMU_AccX,L_Upperarm_IMU_AccY,L_Upperarm_IMU_AccZ,L_Upperarm_IMU_GyrX,L_Upperarm_IMU_GyrY,L_Upperarm_IMU_GyrZ,L_Lowerarm_IMU_QuatW,L_Lowerarm_IMU_QuatX,L_Lowerarm_IMU_QuatY,L_Lowerarm_IMU_QuatZ,L_Lowerarm_IMU_AccX,L_Lowerarm_IMU_AccY,L_Lowerarm_IMU_AccZ,L_Lowerarm_IMU_GyrX,L_Lowerarm_IMU_GyrY,L_Lowerarm_IMU_GyrZ,Chest_IMU_QuatW,Chest_IMU_QuatX,Chest_IMU_QuatY,Chest_IMU_QuatZ,Chest_IMU_AccX,Chest_IMU_AccY,Chest_IMU_AccZ,Chest_IMU_GyrX,Chest_IMU_GyrY,Chest_IMU_GyrZ,R_Upperarm_IMU_QuatW,R_Upperarm_IMU_QuatX,R_Upperarm_IMU_QuatY,R_Upperarm_IMU_QuatZ,R_Upperarm_IMU_AccX,R_Upperarm_IMU_AccY,R_Upperarm_IMU_AccZ,R_Upperarm_IMU_GyrX,R_Upperarm_IMU_GyrY,R_Upperarm_IMU_GyrZ,R_Lowerarm_IMU_QuatW,R_Lowerarm_IMU_QuatX,R_Lowerarm_IMU_QuatY,R_Lowerarm_IMU_QuatZ,R_Lowerarm_IMU_AccX,R_Lowerarm_IMU_AccY,R_Lowerarm_IMU_AccZ,R_Lowerarm_IMU_GyrX,R_Lowerarm_IMU_GyrY,R_Lowerarm_IMU_GyrZ
525669,0,0,1,-22.1704,-15.3149,-10.3711,-3.5156,0.0201,0.0037,-23.7085,-17.7759,0.0622,9.924,0.0192,0.5493,-0.946,-2.1362,0.0622,9.924,0.0192,0.5493,-0.946,-2.1362,-8.9341,1.3062,4.2483,0.008,-0.1689,0.0146,0.4953,-0.3883,0.378,0.679,0.5621,0.4114,0.5857,-0.4142,-9.82,-0.31,-0.21,0,0,0,0.4188,0.6161,0.4599,0.483,1.67,9.54,-1.71,0,0.2,0,0.3006,0.5493,0.4992,0.5988,3.08,9.37,-0.98,0,0.1,0,-0.5052,-0.4913,-0.5144,0.4884,-9.78,-0.12,-0.01,0,0,0,-0.4281,-0.5719,0.4444,0.5404,-2.48,9.53,-0.7,0,0,0,0.5185,0.6438,0.1974,0.5269,4.63,8.54,0.89,0,0,0
525670,0,0,1,-22.1704,-15.3149,-10.3711,-3.5156,-0.0092,0.0165,-23.7085,-17.7759,0.0263,9.809,0.0048,0.6714,-0.5798,-2.2583,0.0263,9.809,0.0048,0.6714,-0.5798,-2.2583,-8.8577,1.3147,4.2507,0.0042,-0.1623,0.0115,0.4954,-0.388,0.3778,0.6792,0.562,0.4114,0.5857,-0.4142,-9.82,-0.32,-0.21,0,0,0,0.4187,0.616,0.46,0.4831,1.72,9.53,-1.68,0,0.1,0,0.3006,0.5493,0.4992,0.5988,3.08,9.37,-0.98,0,0.1,0,-0.5052,-0.4913,-0.5144,0.4885,-9.79,-0.09,-0.04,0,0,0,-0.4281,-0.5719,0.4444,0.5404,-2.48,9.53,-0.7,0,0,0,0.5184,0.6438,0.1974,0.5269,4.59,8.52,0.87,0,0,0
525671,0,0,1,-22.1704,-15.3149,-10.3711,-3.5156,0.0128,0.0201,-23.7085,-17.7759,0.103,9.8737,-0.0239,0.7019,-0.885,-2.3804,0.103,9.8737,-0.0239,0.7019,-0.885,-2.3804,-8.8577,1.3147,4.2507,0.0042,-0.1623,0.0115,0.4954,-0.388,0.3778,0.6792,0.562,0.4114,0.5858,-0.4142,-9.84,-0.3,-0.19,0,0,0,0.4186,0.6159,0.4602,0.4832,1.76,9.51,-1.65,0,0.2,0,0.3004,0.5492,0.4994,0.5989,3.05,9.35,-0.95,0,0.2,0,-0.5052,-0.4913,-0.5144,0.4885,-9.82,-0.09,-0.05,0,0,0,-0.428,-0.5718,0.4445,0.5404,-2.5,9.51,-0.71,0,0,0,0.5184,0.6438,0.1974,0.5269,4.62,8.55,0.91,0,0,0
525672,0,0,1,-22.1704,-15.3149,-10.3711,-3.5156,0.0018,-0.0183,-23.7085,-17.7759,0.0335,9.7923,-0.0335,0.5493,-0.7629,-2.2583,0.0335,9.7923,-0.0335,0.5493,-0.7629,-2.2583,-8.8014,1.3538,4.2396,0.0085,-0.1629,0.0127,0.4956,-0.3877,0.3776,0.6793,0.562,0.4114,0.5858,-0.4142,-9.84,-0.3,-0.19,0,0,0,0.4186,0.6159,0.4602,0.4832,1.76,9.51,-1.65,0,0.2,0,0.3002,0.549,0.4995,0.599,3.16,9.27,-1.02,0,0.2,0,-0.5052,-0.4913,-0.5144,0.4885,-9.82,-0.09,-0.05,0,0,0,-0.428,-0.5718,0.4445,0.5404,-2.51,9.49,-0.73,0,0,0,0.5184,0.6438,0.1974,0.5269,4.61,8.52,0.9,0,0,0
525673,0,0,1,-22.1704,-15.3149,-10.3711,-3.5156,-0.0183,-0.0146,-23.7085,-17.7759,0.0407,9.7444,0.0311,0.5493,-0.7324,-2.2888,0.0407,9.7444,0.0311,0.5493,-0.7324,-2.2888,-8.8014,1.3538,4.2396,0.0085,-0.1629,0.0127,0.4956,-0.3877,0.3776,0.6793,0.562,0.4114,0.5858,-0.4142,-9.78,-0.26,-0.19,0,0,0,0.4185,0.6157,0.4604,0.4833,1.78,9.5,-1.62,0,0.2,0,0.2999,0.5489,0.4996,0.5992,3.25,9.23,-1.05,0,0.2,0,-0.5051,-0.4913,-0.5143,0.4886,-9.82,-0.06,-0.07,0,0,0,-0.428,-0.5718,0.4445,0.5405,-2.56,9.49,-0.75,0,0,0,0.5184,0.6438,0.1974,0.5269,4.61,8.52,0.9,0,0,0
525674,0,0,1,-22.1704,-15.3149,-10.3711,-3.5156,-0.0073,-0.0128,-23.7085,-17.7759,0.0503,9.8114,0.0503,0.3662,-0.885,-2.3193,0.0503,9.8114,0.0503,0.3662,-0.885,-2.3193,-8.8014,1.3538,4.2396,0.0085,-0.1629,0.0127,0.4956,-0.3877,0.3776,0.6793,0.5619,0.4114,0.5858,-0.4142,-9.78,-0.25,-0.19,0,0,0,0.4184,0.6156,0.4606,0.4834,1.85,9.47,-1.61,0,0.2,0,0.2997,0.5487,0.4997,0.5993,3.31,9.22,-1.11,0,0.2,0,-0.5051,-0.4913,-0.5143,0.4886,-9.8,-0.11,-0.06,0,0,0,-0.428,-0.5717,0.4446,0.5405,-2.55,9.5,-0.74,0,0,0,0.5183,0.6438,0.1974,0.5269,4.63,8.52,0.93,0,0,0
525675,0,0,1,-22.1704,-15.3149,-10.3711,-3.5156,-0.0073,-0.0128,-23.7085,-17.7759,0.0335,9.7875,0.0383,0.5188,-0.885,-2.1667,0.0335,9.7875,0.0383,0.5188,-0.885,-2.1667,-8.8303,1.3977,4.1764,0.0187,-0.1584,0.0128,0.4957,-0.3874,0.3775,0.6795,0.5619,0.4115,0.5858,-0.4143,-9.79,-0.26,-0.2,0,0,0,0.4182,0.6154,0.4607,0.4836,1.85,9.44,-1.55,0,0.2,0,0.2997,0.5487,0.4997,0.5993,3.31,9.22,-1.11,0,0.2,0,-0.5051,-0.4913,-0.5143,0.4887,-9.79,-0.12,-0.06,0,0,0,-0.428,-0.5717,0.4446,0.5405,-2.55,9.5,-0.74,0,0,0,0.5183,0.6438,0.1975,0.5269,4.63,8.49,0.92,0,0,0
525676,0,0,1,-22.1704,-15.293,-10.3711,-3.4937,-0.0165,-0.0238,-23.7085,-17.7759,0.0024,9.7971,0.0527,0.4272,-0.4272,-2.1667,0.0024,9.7971,0.0527,0.4272,-0.4272,-2.1667,-8.8303,1.3977,4.1764,0.0187,-0.1584,0.0128,0.4957,-0.3874,0.3775,0.6795,0.5619,0.4115,0.5858,-0.4143,-9.75,-0.27,-0.23,0,0,0,0.4182,0.6154,0.4607,0.4836,1.85,9.44,-1.55,0,0.2,0,0.2994,0.5486,0.4998,0.5995,3.3,9.22,-1.01,0,0.3,0,-0.5051,-0.4913,-0.5142,0.4887,-9.79,-0.13,-0.07,0,0,0,-0.428,-0.5717,0.4446,0.5405,-2.55,9.49,-0.74,0,0,0,0.5183,0.6438,0.1975,0.5269,4.64,8.53,0.94,0,0,0
525677,0,0,1,-22.1704,-15.293,-10.3711,-3.4937,0,0.0092,-23.7085,-17.7759,-0.0239,9.7731,0.0024,0.3357,-0.7935,-1.9531,-0.0239,9.7731,0.0024,0.3357,-0.7935,-1.9531,-8.8754,1.4059,4.09,0.016,-0.139,0.0163,0.4959,-0.3871,0.3773,0.6796,0.5619,0.4115,0.5858,-0.4143,-9.75,-0.27,-0.23,0,0,0,0.4181,0.6153,0.4609,0.4837,1.96,9.44,-1.53,0,0.2,0,0.2991,0.5484,0.5,0.5998,3.43,9.17,-1.07,0,0.3,0,-0.5051,-0.4913,-0.5142,0.4888,-9.8,-0.12,-0.05,0,0,0,-0.428,-0.5717,0.4446,0.5405,-2.57,9.51,-0.72,0,0,0,0.5183,0.6438,0.1975,0.5269,4.61,8.51,0.96,0,0,0
525678,0,0,1,-22.1704,-15.293,-10.3711,-3.4937,0.0018,-0.011,-23.7085,-17.7759,0.0263,9.8186,0.0886,0.3967,-0.8545,-1.9226,0.0263,9.8186,0.0886,0.3967,-0.8545,-1.9226,-8.8754,1.4059,4.09,0.016,-0.139,0.0163,0.4959,-0.3871,0.3773,0.6796,0.5618,0.4115,0.5858,-0.4143,-9.75,-0.27,-0.25,0,0,0,0.418,0.6151,0.4611,0.4839,2.06,9.4,-1.54,0,0.2,0,0.2987,0.5482,0.5001,0.6,3.55,9.13,-1.02,0,0.3,0,-0.5051,-0.4913,-0.5142,0.4888,-9.8,-0.12,-0.05,0,0,0,-0.428,-0.5716,0.4446,0.5405,-2.58,9.52,-0.7,0,0,0,0.5183,0.6438,0.1975,0.5269,4.61,8.51,0.96,0,0,0
525679,0,0,1,-22.1704,-15.293,-10.3711,-3.4937,0.0128,0.011,-23.7085,-17.7759,-0.012,9.7205,0,0.2747,-0.4272,-1.8311,-0.012,9.7205,0,0.2747,-0.4272,-1.8311,-8.8754,1.4059,4.09,0.016,-0.139,0.0163,0.4959,-0.3871,0.3773,0.6796,0.5618,0.4115,0.5859,-0.4143,-9.75,-0.27,-0.25,0,0,0,0.4178,0.6149,0.4613,0.484,2.15,9.35,-1.53,0,0.2,0,0.2984,0.548,0.5002,0.6002,3.67,9.08,-0.93,0,0.3,0,-0.5051,-0.4913,-0.5142,0.4888,-9.8,-0.14,-0.07,0,0,0,-0.428,-0.5716,0.4447,0.5405,-2.58,9.51,-0.67,0,0,0,0.5182,0.6439,0.1975,0.527,4.61,8.52,0.95,0,0,0
525680,0,0,1,-22.1704,-15.293,-10.3711,-3.4937,0.0055,0.011,-23.7085,-17.7759,0,9.7157,0.0575,0.3357,-0.9155,-1.709,0,9.7157,0.0575,0.3357,-0.9155,-1.709,-8.9274,1.4087,4.058,0.0022,-0.1113,0.0237,0.4959,-0.3869,0.3772,0.6798,0.5618,0.4115,0.5859,-0.4143,-9.72,-0.29,-0.22,0,0,0,0.4177,0.6148,0.4615,0.4842,2.21,9.38,-1.57,0,0.2,0,0.2984,0.548,0.5002,0.6002,3.67,9.08,-0.93,0,0.3,0,-0.5051,-0.4913,-0.5142,0.4888,-9.84,-0.14,-0.06,0,0,0,-0.428,-0.5716,0.4447,0.5405,-2.57,9.51,-0.64,0,0,0,0.5182,0.6439,0.1975,0.527,4.62,8.55,0.98,0,0,0
525681,0,0,1,-22.1484,-15.293,-10.3491,-3.4937,0.0128,-0.0128,-23.7085,-17.7759,-0.0503,9.7348,0.0263,0.3662,-0.885,-1.8921,-0.0503,9.7348,0.0263,0.3662,-0.885,-1.8921,-8.9274,1.4087,4.058,0.0022,-0.1113,0.0237,0.4959,-0.3869,0.3772,0.6798,0.5617,0.4115,0.5859,-0.4143,-9.74,-0.26,-0.24,0,0,0,0.4177,0.6148,0.4615,0.4842,2.21,9.38,-1.57,0,0.2,0,0.298,0.5478,0.5004,0.6004,3.88,9.01,-0.99,0,0.3,0,-0.5051,-0.4913,-0.5142,0.4889,-9.84,-0.14,-0.05,0,0,0,-0.428,-0.5716,0.4447,0.5405,-2.57,9.51,-0.64,0,0,0,0.5182,0.6439,0.1976,0.527,4.59,8.52,0.98,0,0,0
525682,0,0,1,-22.1484,-15.293,-10.3491,-3.4937,-0.011,0.0037,-23.7085,-17.7759,-0.0192,9.7588,0.0431,0.4272,-0.7324,-1.5869,-0.0192,9.7588,0.0431,0.4272,-0.7324,-1.5869,-8.871,1.4169,4.1457,-0.0127,-0.0828,0.0292,0.496,-0.3867,0.3771,0.6799,0.5617,0.4115,0.5859,-0.4143,-9.74,-0.26,-0.24,0,0,0,0.4176,0.6147,0.4616,0.4843,2.25,9.37,-1.61,0,0.2,0,0.2977,0.5476,0.5005,0.6007,3.94,8.98,-0.85,0,0.3,0,-0.5051,-0.4912,-0.5142,0.4889,-9.84,-0.14,-0.04,0,0,0,-0.428,-0.5716,0.4447,0.5405,-2.57,9.51,-0.64,0,0,0,0.5182,0.6439,0.1976,0.5269,4.56,8.55,0.96,0,0,0
525683,0,0,1,-22.1704,-15.3149,-10.3491,-3.4937,-0.0055,-0.0275,-23.7085,-17.7759,-0.0622,9.6486,0.0024,0.2747,-0.7324,-1.6785,-0.0622,9.6486,0.0024,0.2747,-0.7324,-1.6785,-8.871,1.4169,4.1457,-0.0127,-0.0828,0.0292,0.496,-0.3867,0.3771,0.6799,0.5617,0.4115,0.5859,-0.4143,-9.74,-0.21,-0.2,0,0,0,0.4175,0.6145,0.4618,0.4844,2.26,9.42,-1.69,0,0.2,0,0.2974,0.5474,0.5006,0.6009,4.09,8.98,-0.8,0,0.3,0,-0.5051,-0.4912,-0.5141,0.4889,-9.83,-0.17,-0.02,0,0,0,-0.428,-0.5716,0.4447,0.5405,-2.58,9.49,-0.59,0,0,0,0.5182,0.6439,0.1976,0.5269,4.56,8.55,0.96,0,0,0
525684,0,0,1,-22.1704,-15.3149,-10.3491,-3.4937,0.0092,0.0183,-23.7085,-17.7759,-0.0383,9.7252,-0.0096,0.2441,-0.7935,-1.8311,-0.0383,9.7252,-0.0096,0.2441,-0.7935,-1.8311,-8.8111,1.3904,4.2037,-0.0074,-0.0554,0.0353,0.4959,-0.3866,0.3771,0.68,0.5617,0.4115,0.5859,-0.4143,-9.72,-0.24,-0.22,0,0,0,0.4173,0.6144,0.462,0.4845,2.26,9.42,-1.77,0,0.2,0,0.2971,0.5472,0.5007,0.6011,4.15,9,-0.71,0,0.3,0,-0.5051,-0.4912,-0.5141,0.4889,-9.85,-0.16,0,0,0,0,-0.4281,-0.5715,0.4447,0.5405,-2.58,9.5,-0.58,0,0,0,0.5182,0.6439,0.1976,0.5269,4.62,8.53,0.96,0,0,0
525685,0,0,1,-22.1704,-15.3149,-10.3491,-3.4937,0.011,0.0165,-23.7085,-17.7759,-0.0335,9.6917,0.0575,0.3052,-0.6714,-1.77,-0.0335,9.6917,0.0575,0.3052,-0.6714,-1.77,-8.8111,1.3904,4.2037,-0.0074,-0.0554,0.0353,0.4959,-0.3866,0.3771,0.68,0.5616,0.4116,0.5859,-0.4143,-9.73,-0.27,-0.26,0,0,0,0.4172,0.6143,0.4621,0.4846,2.24,9.39,-1.88,0,0.2,0,0.2971,0.5472,0.5007,0.6011,4.15,9,-0.71,0,0.3,0,-0.5051,-0.4912,-0.5141,0.4889,-9.84,-0.16,0,0,0,0,-0.4281,-0.5715,0.4448,0.5405,-2.57,9.49,-0.54,0,0,0,0.5182,0.6439,0.1976,0.5269,4.63,8.53,0.95,0,0,0
525686,0,0,1,-22.1704,-15.3149,-10.3491,-3.4937,0.0165,-0.022,-23.7085,-17.7759,-0.0383,9.7013,0,0.3357,-0.7019,-1.5259,-0.0383,9.7013,0,0.3357,-0.7019,-1.5259,-8.8111,1.3904,4.2037,-0.0074,-0.0554,0.0353,0.4959,-0.3866,0.3771,0.68,0.5616,0.4116,0.586,-0.4143,-9.72,-0.26,-0.25,0,0,0,0.4172,0.6143,0.4621,0.4846,2.24,9.39,-1.88,0,0.2,0,0.2968,0.5471,0.5009,0.6013,4.23,9.04,-0.74,0,0.3,0,-0.5051,-0.4912,-0.5141,0.489,-9.83,-0.17,0.02,0,0,0,-0.4281,-0.5715,0.4448,0.5405,-2.57,9.49,-0.54,0,0,0,0.5182,0.6439,0.1976,0.5269,4.66,8.54,0.98,0,0,0
525687,0,0,1,-22.1704,-15.3149,-10.3491,-3.4937,0.0037,-0.0146,-23.7085,-17.7759,-0.0311,9.6582,-0.0024,0.2747,-0.7324,-1.8616,-0.0311,9.6582,-0.0024,0.2747,-0.7324,-1.8616,-8.8117,1.3678,4.1546,-0.0025,-0.0453,0.0321,0.4959,-0.3865,0.377,0.6801,0.5616,0.4116,0.586,-0.4143,-9.72,-0.26,-0.25,0,0,0,0.4171,0.6142,0.4623,0.4847,2.29,9.39,-1.95,0,0.2,0,0.2965,0.5469,0.501,0.6015,4.29,9.01,-0.8,0,0.2,0,-0.5051,-0.4912,-0.5141,0.489,-9.83,-0.17,0.02,0,0,0,-0.4281,-0.5715,0.4448,0.5405,-2.57,9.46,-0.52,0,0,0,0.5182,0.6439,0.1976,0.5269,4.66,8.54,0.98,0,0,0
525688,0,0,1,-22.1704,-15.3149,-10.3491,-3.4937,-0.0055,-0.0092,-23.7085,-17.7759,0.0024,9.7588,0.0168,0.3357,-0.7324,-1.5869,0.0024,9.7588,0.0168,0.3357,-0.7324,-1.5869,-8.8117,1.3678,4.1546,-0.0025,-0.0453,0.0321,0.4959,-0.3865,0.377,0.6801,0.5616,0.4116,0.586,-0.4143,-9.72,-0.28,-0.25,0,0,0,0.4169,0.614,0.4624,0.4848,2.31,9.4,-1.99,0,0.2,0,0.2962,0.5468,0.5011,0.6017,4.33,9,-0.84,0,0.2,0,-0.5051,-0.4912,-0.5141,0.489,-9.76,-0.18,0,0,0,0,-0.4281,-0.5715,0.4448,0.5405,-2.54,9.48,-0.49,0,0,0,0.5182,0.644,0.1977,0.5269,4.66,8.52,0.97,0,0,0
525689,0,0,1,-22.1704,-15.3149,-10.3491,-3.4937,0.0092,0.0183,-23.7085,-17.7759,-0.0527,9.6391,-0.0024,0.3052,-1.0071,-1.8921,-0.0527,9.6391,-0.0024,0.3052,-1.0071,-1.8921,-8.8181,1.3427,4.0561,-0.0085,-0.0345,0.0303,0.4959,-0.3864,0.377,0.6802,0.5615,0.4116,0.586,-0.4144,-9.72,-0.28,-0.26,0,0,0,0.4168,0.6139,0.4626,0.485,2.4,9.38,-1.98,0,0.2,0,0.296,0.5467,0.5012,0.6018,4.42,8.92,-0.95,0,0.2,0,-0.5051,-0.4911,-0.5141,0.489,-9.84,-0.16,0,0,0,0,-0.4281,-0.5715,0.4448,0.5405,-2.56,9.47,-0.48,0,0,0,0.5182,0.644,0.1977,0.5269,4.66,8.52,0.97,0,0,0
525690,0,0,1,-22.1704,-15.3149,-10.3491,-3.4937,-0.0073,-0.011,-23.7085,-17.7759,0.0215,9.7013,-0.0622,0.3357,-0.6104,-1.8311,0.0215,9.7013,-0.0622,0.3357,-0.6104,-1.8311,-8.8181,1.3427,4.0561,-0.0085,-0.0345,0.0303,0.4959,-0.3864,0.377,0.6802,0.5615,0.4116,0.586,-0.4144,-9.66,-0.26,-0.22,0,0,0,0.4167,0.6138,0.4627,0.4851,2.47,9.35,-1.9,0,0.2,0,0.296,0.5467,0.5012,0.6018,4.42,8.92,-0.95,0,0.2,0,-0.5051,-0.4911,-0.5141,0.489,-9.78,-0.17,0.02,0,0,0,-0.4281,-0.5715,0.4448,0.5404,-2.58,9.45,-0.47,0,0,0,0.5182,0.644,0.1977,0.5268,4.66,8.52,0.94,0,0,0
525691,0,0,1,-22.1704,-15.3149,-10.3491,-3.4937,0.022,-0.0238,-23.7085,-17.7759,0,9.7013,0.0192,0.3052,-0.6714,-1.7395,0,9.7013,0.0192,0.3052,-0.6714,-1.7395,-8.8181,1.3427,4.0561,-0.0085,-0.0345,0.0303,0.4959,-0.3864,0.377,0.6802,0.5615,0.4116,0.586,-0.4144,-9.66,-0.26,-0.22,0,0,0,0.4165,0.6137,0.4629,0.4852,2.58,9.32,-1.85,0,0.2,0,0.2957,0.5465,0.5013,0.602,4.44,8.92,-0.96,0,0.2,0,-0.5051,-0.4911,-0.5141,0.489,-9.77,-0.19,0.01,0,0,0,-0.4281,-0.5715,0.4448,0.5404,-2.58,9.45,-0.47,0,0,0,0.5182,0.644,0.1977,0.5268,4.68,8.51,0.91,0,0,0
525692,0,0,1,-22.1704,-15.3149,-10.3491,-3.4937,0.0092,0.0165,-23.7085,-17.7759,-0.0503,9.6534,-0.0862,0.3662,-0.7324,-1.8311,-0.0503,9.6534,-0.0862,0.3662,-0.7324,-1.8311,-8.9255,1.353,4.0003,-0.0034,-0.0082,0.0347,0.4959,-0.3864,0.377,0.6802,0.5614,0.4116,0.586,-0.4144,-9.67,-0.23,-0.2,0,0,0,0.4165,0.6137,0.4629,0.4852,2.58,9.32,-1.85,0,0.2,0,0.2955,0.5464,0.5014,0.6021,4.48,8.95,-0.98,0,0.2,0,-0.5051,-0.4911,-0.5141,0.489,-9.77,-0.19,0.01,0,0,0,-0.4282,-0.5715,0.4448,0.5404,-2.58,9.43,-0.44,0,0,0,0.5182,0.644,0.1977,0.5268,4.7,8.5,0.87,0,0,0
525693,0,0,1,-22.1704,-15.293,-10.3491,-3.4717,-0.0146,-0.011,-23.7085,-17.7759,-0.012,9.6726,0.0048,0.5188,-0.5188,-1.7395,-0.012,9.6726,0.0048,0.5188,-0.5188,-1.7395,-8.9255,1.353,4.0003,-0.0034,-0.0082,0.0347,0.4959,-0.3864,0.377,0.6802,0.5614,0.4116,0.586,-0.4144,-9.68,-0.26,-0.17,0,0,0,0.4164,0.6136,0.463,0.4854,2.7,9.3,-1.8,0,0.2,0,0.2953,0.5462,0.5015,0.6023,4.49,8.96,-0.95,0,0.2,0,-0.5051,-0.4911,-0.5141,0.489,-9.78,-0.19,0.02,0,0,0,-0.4282,-0.5715,0.4448,0.5404,-2.59,9.45,-0.44,0,0,0,0.5182,0.644,0.1977,0.5268,4.7,8.5,0.87,0,0,0
525694,0,0,1,-22.1704,-15.293,-10.3491,-3.4717,0.0128,-0.0256,-23.7085,-17.7759,-0.0072,9.6774,-0.0431,0.4883,-0.7324,-1.8921,-0.0072,9.6774,-0.0431,0.4883,-0.7324,-1.8921,-8.9461,1.3342,3.9362,0.0021,0.0417,0.0358,0.4958,-0.3864,0.3771,0.6802,0.5614,0.4116,0.5861,-0.4144,-9.73,-0.25,-0.16,0,0,0,0.4163,0.6135,0.4631,0.4855,2.79,9.31,-1.74,0,0.1,0,0.2951,0.5461,0.5016,0.6024,4.52,9,-0.91,0,0.2,0,-0.5051,-0.4911,-0.5141,0.489,-9.74,-0.18,0.02,0,0,0,-0.4282,-0.5714,0.4448,0.5404,-2.58,9.43,-0.45,0,0,0,0.5182,0.644,0.1977,0.5268,4.68,8.5,0.88,0,0,0
525695,0,0,1,-22.1484,-15.293,-10.3271,-3.4717,-0.0092,0.0037,-23.7085,-17.7759,0.0263,9.754,0.0168,0.3967,-0.7629,-1.6479,0.0263,9.754,0.0168,0.3967,-0.7629,-1.6479,-8.9461,1.3342,3.9362,0.0021,0.0417,0.0358,0.4958,-0.3864,0.3771,0.6802,0.5613,0.4117,0.5861,-0.4144,-9.75,-0.27,-0.13,0,0,0,0.4162,0.6134,0.4632,0.4856,2.92,9.31,-1.64,0,0.1,0,0.2951,0.5461,0.5016,0.6024,4.52,9,-0.91,0,0.2,0,-0.5051,-0.4911,-0.5141,0.4891,-9.75,-0.16,0.03,0,0,0,-0.4282,-0.5714,0.4448,0.5404,-2.58,9.43,-0.45,0,0,0,0.5182,0.644,0.1978,0.5267,4.68,8.51,0.84,0,0,0
525696,0,0,1,-22.1484,-15.293,-10.3271,-3.4717,0.011,-0.011,-23.7085,-17.7759,-0.0599,9.6031,-0.0982,0.5493,-0.5188,-1.6479,-0.0599,9.6031,-0.0982,0.5493,-0.5188,-1.6479,-8.9461,1.3342,3.9362,0.0021,0.0417,0.0358,0.4958,-0.3864,0.3771,0.6802,0.5613,0.4117,0.5861,-0.4144,-9.75,-0.27,-0.13,0,0,0,0.4162,0.6134,0.4632,0.4856,2.92,9.31,-1.64,0,0.1,0,0.2948,0.546,0.5017,0.6026,4.55,8.98,-0.85,0,0.2,0,-0.5051,-0.4911,-0.5141,0.4891,-9.77,-0.16,0.05,0,0,0,-0.4282,-0.5714,0.4448,0.5404,-2.6,9.43,-0.47,0,0,0,0.5182,0.644,0.1978,0.5267,4.69,8.51,0.84,0,0,0
525697,0,0,1,-22.1484,-15.293,-10.3271,-3.4717,0.0128,0.0128,-23.7085,-17.7759,0.0479,9.73,-0.0263,0.5798,-0.7019,-1.77,0.0479,9.73,-0.0263,0.5798,-0.7019,-1.77,-8.8491,1.3407,4.0613,0.0109,0.0811,0.035,0.4956,-0.3865,0.3772,0.6802,0.5613,0.4117,0.5861,-0.4145,-9.75,-0.29,-0.11,0,0,0,0.416,0.6133,0.4633,0.4857,3.02,9.34,-1.57,0,0.1,0,0.2947,0.5459,0.5017,0.6027,4.52,9.01,-0.79,0,0.1,0,-0.5051,-0.4911,-0.5141,0.4891,-9.77,-0.16,0.05,0,0,0,-0.4283,-0.5714,0.4448,0.5404,-2.56,9.43,-0.49,0,0,0,0.5183,0.644,0.1978,0.5266,4.7,8.5,0.85,0,0,0
525698,0,0,1,-22.1704,-15.3149,-10.3271,-3.4717,0.011,0.0128,-23.7085,-17.7759,-0.0048,9.663,0,0.7629,-0.7324,-2.0752,-0.0048,9.663,0,0.7629,-0.7324,-2.0752,-8.8491,1.3407,4.0613,0.0109,0.0811,0.035,0.4956,-0.3865,0.3772,0.6802,0.5613,0.4117,0.5861,-0.4145,-9.75,-0.29,-0.11,0,0,0,0.4159,0.6132,0.4634,0.4858,3.11,9.33,-1.52,0,0.1,0,0.2945,0.5458,0.5018,0.6028,4.46,9,-0.77,0,0.1,0,-0.5051,-0.491,-0.5141,0.4891,-9.76,-0.15,0.05,0,0,0,-0.4283,-0.5714,0.4448,0.5403,-2.59,9.43,-0.52,0,0,0,0.5183,0.644,0.1978,0.5266,4.7,8.5,0.85,0,0,0
525699,0,0,1,-22.1704,-15.3149,-10.3271,-3.4717,-0.0037,0.0165,-23.7085,-17.7759,0.0383,9.7683,-0.0383,0.5493,-0.5188,-1.77,0.0383,9.7683,-0.0383,0.5493,-0.5188,-1.77,-8.69,1.3054,4.0963,0.0178,0.0878,0.0381,0.4955,-0.3866,0.3774,0.6802,0.5612,0.4117,0.5861,-0.4145,-9.75,-0.27,-0.09,0,0,0,0.4159,0.6132,0.4634,0.4859,3.18,9.37,-1.51,0,0,0,0.2944,0.5457,0.5019,0.6029,4.42,8.99,-0.79,0,0.1,0,-0.5051,-0.491,-0.5141,0.4891,-9.75,-0.14,0.07,0,0,0,-0.4283,-0.5715,0.4448,0.5403,-2.61,9.43,-0.55,0,0,0,0.5183,0.644,0.1978,0.5266,4.67,8.53,0.86,0,0,0
525700,0,0,1,-22.1704,-15.3149,-10.3271,-3.4717,0.0128,0.0201,-23.7085,-17.7759,0.0287,9.7636,-0.0287,0.6714,-0.8545,-1.6785,0.0287,9.7636,-0.0287,0.6714,-0.8545,-1.6785,-8.69,1.3054,4.0963,0.0178,0.0878,0.0381,0.4955,-0.3866,0.3774,0.6802,0.5612,0.4117,0.5861,-0.4145,-9.76,-0.31,-0.11,0,0,0,0.4158,0.6133,0.4634,0.4859,3.12,9.36,-1.54,0,0,0,0.2944,0.5457,0.5019,0.6029,4.42,8.99,-0.79,0,0.1,0,-0.5051,-0.491,-0.5141,0.4891,-9.77,-0.13,0.06,0,0,0,-0.4283,-0.5715,0.4448,0.5403,-2.61,9.43,-0.55,0,0,0,0.5184,0.644,0.1978,0.5265,4.65,8.52,0.88,0,0,0
525701,0,0,1,-22.1704,-15.3149,-10.3271,-3.4717,0.0073,0.0128,-23.7085,-17.7759,0.0575,9.8138,-0.0527,0.7629,-0.9155,-1.77,0.0575,9.8138,-0.0527,0.7629,-0.9155,-1.77,-8.69,1.3054,4.0963,0.0178,0.0878,0.0381,0.4955,-0.3866,0.3774,0.6802,0.5612,0.4117,0.5861,-0.4146,-9.81,-0.32,-0.12,0,0,0,0.4158,0.6133,0.4634,0.4859,3.12,9.36,-1.54,0,0,0,0.2942,0.5456,0.5019,0.603,4.37,9.02,-0.76,0,0.1,0,-0.5051,-0.491,-0.5141,0.4891,-9.76,-0.14,0.07,0,0,0,-0.4284,-0.5715,0.4448,0.5403,-2.58,9.41,-0.56,0,0,0,0.5184,0.644,0.1978,0.5265,4.68,8.52,0.9,0,0,0
525702,0,0,1,-22.1704,-15.3149,-10.3271,-3.4717,0.0128,-0.011,-23.7085,-17.7759,0.0287,9.6965,-0.0263,0.885,-0.7324,-1.7395,0.0287,9.6965,-0.0263,0.885,-0.7324,-1.7395,-8.623,1.2579,4.0598,0.0166,0.0862,0.0406,0.4954,-0.3867,0.3775,0.6801,0.5612,0.4117,0.5861,-0.4146,-9.81,-0.32,-0.12,0,0,0,0.4158,0.6133,0.4634,0.4858,3.04,9.32,-1.63,0,0,0,0.2941,0.5456,0.502,0.603,4.27,9.02,-0.75,0,0,0,-0.5051,-0.491,-0.5141,0.4891,-9.76,-0.14,0.07,0,0,0,-0.4284,-0.5715,0.4448,0.5402,-2.58,9.41,-0.55,0,0,0,0.5184,0.644,0.1978,0.5264,4.66,8.49,0.86,0,0,0
525703,0,0,1,-22.1704,-15.3149,-10.3271,-3.4717,0.022,-0.0256,-23.7085,-17.7759,0.079,9.8689,-0.0455,0.6714,-0.8545,-1.6479,0.079,9.8689,-0.0455,0.6714,-0.8545,-1.6479,-8.623,1.2579,4.0598,0.0166,0.0862,0.0406,0.4954,-0.3867,0.3775,0.6801,0.5612,0.4117,0.5861,-0.4146,-9.84,-0.29,-0.13,0,0,0,0.4158,0.6134,0.4633,0.4858,2.95,9.3,-1.71,0,0,0,0.2941,0.5455,0.502,0.6031,4.25,9.01,-0.8,0,0,0,-0.5051,-0.491,-0.5142,0.4891,-9.76,-0.14,0.07,0,0,0,-0.4284,-0.5715,0.4447,0.5402,-2.56,9.4,-0.54,0,0,0,0.5184,0.644,0.1978,0.5264,4.66,8.49,0.86,0,0,0
525704,0,0,1,-22.1704,-15.3149,-10.3271,-3.4717,-0.0128,0.0092,-23.7085,-17.7759,0.0527,9.7971,-0.0503,0.7935,-0.824,-1.5259,0.0527,9.7971,-0.0503,0.7935,-0.824,-1.5259,-8.623,1.2579,4.0598,0.0166,0.0862,0.0406,0.4954,-0.3867,0.3775,0.6801,0.5611,0.4117,0.5861,-0.4146,-9.82,-0.34,-0.12,0,0,0,0.4158,0.6135,0.4633,0.4857,2.82,9.27,-1.79,0,-0.1,0,0.294,0.5455,0.502,0.6031,4.24,9.01,-0.82,0,0,0,-0.5051,-0.491,-0.5142,0.4892,-9.71,-0.11,0.07,0,0,0,-0.4285,-0.5715,0.4447,0.5402,-2.55,9.39,-0.54,0,0,0,0.5185,0.644,0.1979,0.5264,4.66,8.49,0.83,0,0,0
525705,0,0,1,-22.1704,-15.293,-10.3271,-3.4497,0.0092,0,-23.7085,-17.7759,0.0814,9.7779,0,0.7019,-0.946,-1.709,0.0814,9.7779,0,0.7019,-0.946,-1.709,-8.5854,1.1939,4.076,-0.0032,0.0625,0.0396,0.4952,-0.3868,0.3777,0.6801,0.5611,0.4117,0.5862,-0.4146,-9.83,-0.36,-0.15,0,0,0,0.4158,0.6137,0.4632,0.4856,2.7,9.27,-1.84,0,-0.1,0,0.294,0.5455,0.502,0.6031,4.24,9.01,-0.82,0,0,0,-0.5051,-0.491,-0.5142,0.4892,-9.7,-0.13,0.08,0,0,0,-0.4285,-0.5715,0.4447,0.5402,-2.55,9.39,-0.54,0,0,0,0.5185,0.644,0.1979,0.5263,4.68,8.5,0.83,0,0,0
525706,0,0,1,-22.1484,-15.293,-10.3052,-3.4497,0.0128,0.0201,-23.7085,-17.7759,0.1053,9.7971,-0.0096,0.9766,-0.824,-1.6479,0.1053,9.7971,-0.0096,0.9766,-0.824,-1.6479,-8.5854,1.1939,4.076,-0.0032,0.0625,0.0396,0.4952,-0.3868,0.3777,0.6801,0.5611,0.4117,0.5862,-0.4146,-9.86,-0.35,-0.17,0,0,0,0.4158,0.6137,0.4632,0.4856,2.7,9.27,-1.84,0,-0.1,0,0.2939,0.5455,0.5021,0.6031,4.23,9,-0.78,0,0,0,-0.5051,-0.491,-0.5142,0.4892,-9.71,-0.1,0.08,0,0,0,-0.4285,-0.5715,0.4447,0.5402,-2.55,9.39,-0.54,0,0,0,0.5186,0.644,0.1979,0.5263,4.67,8.49,0.8,0,0,0
525707,0,0,1,-22.1484,-15.293,-10.3052,-3.4497,-0.0092,0.011,-23.7085,-17.7759,0.1149,9.8019,-0.0024,1.0986,-0.885,-1.2817,0.1149,9.8019,-0.0024,1.0986,-0.885,-1.2817,-8.5704,1.1809,4.1231,-0.0157,0.038,0.0403,0.4951,-0.3868,0.3777,0.6801,0.5611,0.4117,0.5862,-0.4146,-9.86,-0.35,-0.17,0,0,0,0.4159,0.6138,0.4631,0.4855,2.6,9.3,-1.87,0,-0.1,0,0.2939,0.5455,0.5021,0.6032,4.23,9,-0.77,0,0,0,-0.5051,-0.4909,-0.5142,0.4892,-9.67,-0.11,0.07,0,0,0,-0.4286,-0.5716,0.4446,0.5401,-2.48,9.39,-0.51,0,0,0,0.5186,0.644,0.1979,0.5263,4.67,8.49,0.8,0,0,0
525708,0,0,1,-22.1704,-15.3149,-10.3052,-3.4497,-0.0037,-0.0201,-23.7085,-17.7759,0.1652,9.8904,-0.0335,1.0071,-0.7935,-1.4343,0.1652,9.8904,-0.0335,1.0071,-0.7935,-1.4343,-8.5704,1.1809,4.1231,-0.0157,0.038,0.0403,0.4951,-0.3868,0.3777,0.6801,0.561,0.4117,0.5862,-0.4146,-9.84,-0.34,-0.16,0,0,0,0.4159,0.6139,0.463,0.4854,2.52,9.32,-1.85,0,-0.1,0,0.2939,0.5455,0.5021,0.6032,4.19,8.98,-0.78,0,0,0,-0.5051,-0.4909,-0.5142,0.4892,-9.67,-0.11,0.07,0,0,0,-0.4287,-0.5716,0.4446,0.5401,-2.44,9.4,-0.52,0,0,0,0.5186,0.644,0.198,0.5262,4.65,8.52,0.82,0,0,0
525709,0,0,1,-22.1704,-15.3149,-10.3052,-3.4497,-0.0018,0.011,-23.7085,-17.7759,0.1173,9.8474,-0.0096,0.8545,-1.0986,-1.3123,0.1173,9.8474,-0.0096,0.8545,-1.0986,-1.3123,-8.5704,1.1809,4.1231,-0.0157,0.038,0.0403,0.4951,-0.3868,0.3777,0.6801,0.561,0.4117,0.5862,-0.4146,-9.82,-0.37,-0.17,0,0,0,0.416,0.614,0.4629,0.4853,2.42,9.36,-1.8,0,-0.1,0,0.2939,0.5455,0.5021,0.6031,4.13,9.02,-0.79,0,0,0,-0.5051,-0.4909,-0.5142,0.4892,-9.69,-0.09,0.08,0,0,0,-0.4287,-0.5716,0.4446,0.54,-2.42,9.4,-0.51,0,0,0,0.5187,0.644,0.198,0.5261,4.64,8.51,0.8,0,0,0
525710,0,0,1,-22.1704,-15.3149,-10.3052,-3.4497,-0.0201,-0.022,-23.7085,-17.7759,0.0862,9.8282,-0.0192,1.0376,-0.9155,-1.2207,0.0862,9.8282,-0.0192,1.0376,-0.9155,-1.2207,-8.6359,1.1888,4.0754,-0.0248,0.0137,0.0397,0.495,-0.3869,0.3777,0.6802,0.561,0.4117,0.5863,-0.4146,-9.84,-0.37,-0.18,0,0,0,0.4161,0.6141,0.4627,0.4852,2.39,9.38,-1.74,0,-0.1,0,0.2939,0.5455,0.5021,0.6031,4.13,9.02,-0.79,0,0,0,-0.5051,-0.4909,-0.5142,0.4892,-9.7,-0.08,0.07,0,0,0,-0.4288,-0.5716,0.4445,0.54,-2.4,9.41,-0.53,0,0,0,0.5187,0.644,0.198,0.5261,4.67,8.5,0.79,0,0,0
525711,0,0,1,-22.1704,-15.3149,-10.3052,-3.4497,-0.0073,-0.022,-23.7085,-17.7759,0.1389,9.8809,0.0024,1.1292,-0.7629,-1.0681,0.1389,9.8809,0.0024,1.1292,-0.7629,-1.0681,-8.6359,1.1888,4.0754,-0.0248,0.0137,0.0397,0.495,-0.3869,0.3777,0.6802,0.561,0.4117,0.5863,-0.4146,-9.84,-0.35,-0.19,0,0,0,0.4162,0.6143,0.4626,0.4851,2.36,9.38,-1.73,0,-0.1,0,0.2939,0.5455,0.5021,0.6031,4.07,9.02,-0.76,0,0,0,-0.5051,-0.4909,-0.5142,0.4892,-9.71,-0.08,0.05,0,0,0,-0.4288,-0.5716,0.4445,0.54,-2.4,9.41,-0.53,0,0,0,0.5188,0.6441,0.1981,0.526,4.67,8.49,0.76,0,0,0
525712,0,0,1,-22.1704,-15.3149,-10.3052,-3.4497,-0.011,0.022,-23.7085,-17.7759,0.0742,9.7875,0.0048,1.0376,-1.0376,-0.824,0.0742,9.7875,0.0048,1.0376,-1.0376,-0.824,-8.6794,1.2113,4.0472,-0.0292,-0.0048,0.0391,0.4949,-0.3869,0.3777,0.6802,0.561,0.4117,0.5863,-0.4146,-9.84,-0.35,-0.19,0,0,0,0.4162,0.6143,0.4626,0.4851,2.36,9.38,-1.73,0,-0.1,0,0.294,0.5456,0.502,0.6031,3.94,9.03,-0.71,0,0,0,-0.5051,-0.4908,-0.5142,0.4892,-9.68,-0.06,0.05,0,0,0,-0.4288,-0.5716,0.4445,0.54,-2.37,9.42,-0.55,0,0,0,0.5188,0.6441,0.1981,0.526,4.67,8.49,0.76,0,0,0
525713,0,0,1,-22.1704,-15.293,-10.3052,-3.4277,-0.0037,-0.0165,-23.7085,-17.7759,0.1077,9.8952,0.0048,0.8545,-1.1292,-0.9155,0.1077,9.8952,0.0048,0.8545,-1.1292,-0.9155,-8.6794,1.2113,4.0472,-0.0292,-0.0048,0.0391,0.4949,-0.3869,0.3777,0.6802,0.561,0.4117,0.5863,-0.4146,-9.82,-0.36,-0.2,0,0,0,0.4163,0.6144,0.4625,0.485,2.34,9.4,-1.7,0,-0.1,0,0.294,0.5456,0.502,0.6031,3.83,9.06,-0.72,0,0,0,-0.5051,-0.4908,-0.5142,0.4892,-9.68,-0.06,0.05,0,0,0,-0.4289,-0.5716,0.4445,0.54,-2.33,9.43,-0.56,0,0,0,0.5188,0.6441,0.1981,0.5259,4.67,8.5,0.78,0,0,0
525714,0,0,1,-22.1484,-15.293,-10.2832,-3.4277,-0.0073,-0.0146,-23.7085,-17.7759,0.1149,9.8833,0.0048,1.0681,-0.8545,-0.7935,0.1149,9.8833,0.0048,1.0681,-0.8545,-0.7935,-8.6794,1.2113,4.0472,-0.0292,-0.0048,0.0391,0.4949,-0.3869,0.3777,0.6802,0.5609,0.4117,0.5863,-0.4145,-9.85,-0.37,-0.19,0,0,0,0.4163,0.6145,0.4623,0.4848,2.31,9.43,-1.68,0,-0.1,0,0.2941,0.5457,0.5019,0.603,3.7,9.11,-0.73,0,0,0,-0.5051,-0.4908,-0.5142,0.4892,-9.69,-0.03,0.05,0,0,0,-0.4289,-0.5716,0.4445,0.54,-2.33,9.43,-0.56,0,0,0,0.5188,0.6441,0.1982,0.5258,4.7,8.49,0.78,0,0,0
525715,0,0,1,-22.1484,-15.293,-10.2832,-3.4277,0.0128,0.0165,-23.7085,-17.7759,0.1101,9.8234,-0.0503,1.0071,-1.1902,-0.6104,0.1101,9.8234,-0.0503,1.0071,-1.1902,-0.6104,-8.7299,1.2159,4.0698,-0.0353,-0.0172,0.036,0.4948,-0.3869,0.3777,0.6803,0.5609,0.4117,0.5864,-0.4145,-9.82,-0.38,-0.23,0,0,0,0.4164,0.6147,0.4622,0.4847,2.28,9.42,-1.66,0,-0.2,0,0.2941,0.5457,0.5019,0.603,3.7,9.11,-0.73,0,0,0,-0.5052,-0.4907,-0.5142,0.4892,-9.73,-0.03,0.04,0,0,0,-0.429,-0.5717,0.4444,0.5399,-2.3,9.47,-0.56,0,0,0,0.5189,0.6441,0.1983,0.5257,4.68,8.5,0.77,0,0,0
525716,0,0,1,-22.1704,-15.3149,-10.2832,-3.4277,0.0073,-0.0146,-23.7085,-17.7759,0.0982,9.7971,0.0311,0.824,-1.0071,-0.7324,0.0982,9.7971,0.0311,0.824,-1.0071,-0.7324,-8.7299,1.2159,4.0698,-0.0353,-0.0172,0.036,0.4948,-0.3869,0.3777,0.6803,0.5609,0.4117,0.5864,-0.4145,-9.81,-0.37,-0.23,0,0,0,0.4164,0.6147,0.4622,0.4847,2.28,9.42,-1.66,0,-0.2,0,0.2942,0.5458,0.5019,0.6029,3.55,9.16,-0.76,0,-0.1,0,-0.5052,-0.4907,-0.5142,0.4893,-9.75,-0.06,0.02,0,0,0,-0.429,-0.5717,0.4444,0.5399,-2.3,9.47,-0.56,0,0,0,0.5189,0.6442,0.1983,0.5256,4.68,8.5,0.79,0,0,0
525717,0,0,1,-22.1704,-15.3149,-10.2832,-3.4277,0.0037,0.0183,-23.7085,-17.7759,0.1006,9.8952,0.0192,1.1597,-1.1292,-0.4578,0.1006,9.8952,0.0192,1.1597,-1.1292,-0.4578,-8.7198,1.2578,4.0896,-0.0376,-0.0257,0.0361,0.4947,-0.3868,0.3776,0.6804,0.5609,0.4117,0.5864,-0.4145,-9.81,-0.37,-0.23,0,0,0,0.4165,0.6148,0.4621,0.4845,2.23,9.43,-1.68,0,-0.2,0,0.2943,0.5459,0.5018,0.6029,3.44,9.24,-0.79,0,-0.1,0,-0.5052,-0.4907,-0.5142,0.4893,-9.75,-0.06,0.02,0,0,0,-0.429,-0.5717,0.4443,0.5399,-2.27,9.45,-0.55,0,0,0,0.519,0.6442,0.1984,0.5255,4.67,8.53,0.82,0,0,0
525718,0,0,1,-22.1704,-15.3149,-10.2832,-3.4277,0.0128,-0.0146,-23.7085,-17.7759,0.0694,9.7588,0,1.0071,-1.3123,-0.5493,0.0694,9.7588,0,1.0071,-1.3123,-0.5493,-8.7198,1.2578,4.0896,-0.0376,-0.0257,0.0361,0.4947,-0.3868,0.3776,0.6804,0.5609,0.4117,0.5864,-0.4145,-9.77,-0.32,-0.24,0,0,0,0.4167,0.615,0.4619,0.4844,2.18,9.39,-1.71,0,-0.2,0,0.2944,0.546,0.5017,0.6028,3.29,9.26,-0.84,0,-0.1,0,-0.5052,-0.4906,-0.5142,0.4893,-9.77,-0.03,0,0,0,0,-0.429,-0.5717,0.4443,0.5399,-2.26,9.46,-0.54,0,0,0,0.519,0.6442,0.1984,0.5255,4.67,8.53,0.82,0,0,0
525719,0,0,1,-22.1704,-15.3149,-10.2832,-3.4277,0.0073,0,-23.7085,-17.7759,0.0886,9.8569,-0.0239,0.7935,-1.2512,-0.4883,0.0886,9.8569,-0.0239,0.7935,-1.2512,-0.4883,-8.7198,1.2578,4.0896,-0.0376,-0.0257,0.0361,0.4947,-0.3868,0.3776,0.6804,0.5609,0.4117,0.5865,-0.4145,-9.79,-0.32,-0.25,0,0,0,0.4168,0.6151,0.4618,0.4842,2.13,9.4,-1.73,0,-0.2,0,0.2944,0.5461,0.5017,0.6027,3.22,9.29,-0.89,0,-0.1,0,-0.5052,-0.4906,-0.5142,0.4893,-9.79,-0.03,0.01,0,0,0,-0.4291,-0.5717,0.4443,0.5399,-2.25,9.5,-0.54,0,0,0,0.519,0.6442,0.1984,0.5254,4.66,8.51,0.8,0,0,0
525720,0,0,1,-22.1704,-15.3149,-10.2832,-3.4277,-0.0055,-0.0128,-23.7085,-17.7759,0.0239,9.7492,-0.0072,1.0071,-1.0376,-0.4272,0.0239,9.7492,-0.0072,1.0071,-1.0376,-0.4272,-8.8143,1.2904,4.033,-0.0406,-0.0331,0.0413,0.4947,-0.3868,0.3775,0.6805,0.5608,0.4117,0.5865,-0.4145,-9.75,-0.34,-0.25,0,0,0,0.4169,0.6153,0.4616,0.4841,2.06,9.4,-1.76,0,-0.2,0,0.2944,0.5461,0.5017,0.6027,3.22,9.29,-0.89,0,-0.1,0,-0.5053,-0.4906,-0.5142,0.4893,-9.79,-0.04,0,0,0,0,-0.4291,-0.5717,0.4442,0.5399,-2.23,9.48,-0.52,0,0,0,0.519,0.6442,0.1985,0.5253,4.66,8.49,0.81,0,0,0
525721,0,0,1,-22.1484,-15.293,-10.2612,-3.4058,0.0128,-0.0073,-23.7085,-17.7759,0.0527,9.8138,0,1.0071,-1.0376,-0.4578,0.0527,9.8138,0,1.0071,-1.0376,-0.4578,-8.8143,1.2904,4.033,-0.0406,-0.0331,0.0413,0.4947,-0.3868,0.3775,0.6805,0.5608,0.4117,0.5865,-0.4145,-9.76,-0.32,-0.25,0,0,0,0.4169,0.6153,0.4616,0.4841,2.06,9.4,-1.76,0,-0.2,0,0.2945,0.5462,0.5016,0.6026,3.12,9.3,-0.93,0,-0.1,0,-0.5053,-0.4905,-0.5142,0.4893,-9.81,-0.06,0,0,0,0,-0.4291,-0.5717,0.4442,0.5399,-2.23,9.48,-0.52,0,0,0,0.5191,0.6443,0.1986,0.5252,4.7,8.49,0.82,0,0,0
525722,0,0,1,-22.1484,-15.293,-10.2612,-3.4058,0.0055,0.0128,-23.7085,-17.7759,0.0215,9.7588,0.0072,1.1292,-1.2512,-0.5188,0.0215,9.7588,0.0072,1.1292,-1.2512,-0.5188,-8.8943,1.3238,3.9475,-0.0535,-0.0316,0.0476,0.4946,-0.3868,0.3775,0.6807,0.5608,0.4117,0.5865,-0.4145,-9.76,-0.32,-0.25,0,0,0,0.417,0.6154,0.4615,0.4839,2.02,9.42,-1.75,0,-0.2,0,0.2946,0.5463,0.5016,0.6025,3.08,9.31,-0.93,0,-0.1,0,-0.5053,-0.4905,-0.5142,0.4893,-9.81,-0.06,0,0,0,0,-0.4292,-0.5717,0.4442,0.5399,-2.2,9.49,-0.52,0,0,0,0.5191,0.6443,0.1986,0.5251,4.72,8.5,0.81,0,0,0
525723,0,0,1,-22.1484,-15.293,-10.2612,-3.4058,-0.0073,0.0128,-23.7085,-17.7759,0.0455,9.7636,-0.0215,0.946,-0.946,-0.2441,0.0455,9.7636,-0.0215,0.946,-0.946,-0.2441,-8.8943,1.3238,3.9475,-0.0535,-0.0316,0.0476,0.4946,-0.3868,0.3775,0.6807,0.5608,0.4117,0.5866,-0.4145,-9.75,-0.3,-0.25,0,0,0,0.4171,0.6155,0.4614,0.4838,1.98,9.41,-1.74,0,-0.1,0,0.2947,0.5464,0.5016,0.6024,3.07,9.25,-0.97,0,-0.1,0,-0.5053,-0.4905,-0.5142,0.4894,-9.79,-0.07,-0.02,0,0,0,-0.4292,-0.5717,0.4441,0.5399,-2.2,9.47,-0.53,0,0,0,0.5191,0.6443,0.1986,0.5251,4.72,8.5,0.81,0,0,0
525724,0,0,1,-22.1704,-15.3149,-10.2612,-3.4058,-0.0146,0.0073,-23.7085,-17.7759,0,9.7636,-0.0096,0.946,-1.2817,-0.4883,0,9.7636,-0.0096,0.946,-1.2817,-0.4883,-8.8943,1.3238,3.9475,-0.0535,-0.0316,0.0476,0.4946,-0.3868,0.3775,0.6807,0.5608,0.4117,0.5866,-0.4145,-9.74,-0.31,-0.24,0,0,0,0.4172,0.6156,0.4612,0.4837,1.95,9.42,-1.7,0,-0.1,0,0.2947,0.5465,0.5015,0.6023,3.09,9.2,-1,0,-0.1,0,-0.5053,-0.4904,-0.5142,0.4894,-9.8,-0.06,-0.04,0,0,0,-0.4292,-0.5718,0.4441,0.5398,-2.16,9.49,-0.51,0,0,0,0.5191,0.6443,0.1987,0.525,4.7,8.5,0.81,0,0,0
525725,0,0,1,-22.1704,-15.3149,-10.2612,-3.4058,0.0092,-0.0275,-23.7085,-17.7759,-0.0287,9.7157,-0.0024,1.1597,-1.0681,-0.2441,-0.0287,9.7157,-0.0024,1.1597,-1.0681,-0.2441,-8.8725,1.3395,3.9882,-0.0606,-0.017,0.053,0.4944,-0.3868,0.3774,0.6808,0.5608,0.4116,0.5866,-0.4144,-9.71,-0.27,-0.23,0,0,0,0.4173,0.6157,0.4611,0.4836,1.91,9.42,-1.65,0,-0.1,0,0.2947,0.5465,0.5015,0.6023,3.09,9.2,-1,0,-0.1,0,-0.5053,-0.4904,-0.5142,0.4894,-9.78,-0.09,-0.04,0,0,0,-0.4292,-0.5718,0.4441,0.5398,-2.16,9.49,-0.51,0,0,0,0.5192,0.6444,0.1988,0.5249,4.71,8.51,0.84,0,0,0
525726,0,0,1,-22.1704,-15.3149,-10.2612,-3.4058,-0.0128,-0.0256,-23.7085,-17.7759,0.0383,9.7252,0,0.7324,-1.2207,-0.3662,0.0383,9.7252,0,0.7324,-1.2207,-0.3662,-8.8725,1.3395,3.9882,-0.0606,-0.017,0.053,0.4944,-0.3868,0.3774,0.6808,0.5607,0.4116,0.5867,-0.4144,-9.72,-0.27,-0.22,0,0,0,0.4173,0.6157,0.4611,0.4836,1.91,9.42,-1.65,0,-0.1,0,0.2947,0.5466,0.5015,0.6022,3.13,9.17,-1.03,0,-0.1,0,-0.5053,-0.4904,-0.5142,0.4895,-9.79,-0.1,-0.07,0,0,0,-0.4293,-0.5718,0.444,0.5398,-2.14,9.47,-0.49,0,0,0,0.5192,0.6444,0.1989,0.5248,4.7,8.56,0.84,0,0,0
525727,0,0,1,-22.1704,-15.3149,-10.2612,-3.4058,0.0128,-0.0018,-23.7085,-17.7759,0.0503,9.7061,-0.0455,0.9766,-1.1292,-0.1221,0.0503,9.7061,-0.0455,0.9766,-1.1292,-0.1221,-8.799,1.3777,4.0538,-0.0503,-0.0124,0.0537,0.4943,-0.3868,0.3773,0.681,0.5607,0.4116,0.5867,-0.4144,-9.72,-0.27,-0.22,0,0,0,0.4174,0.6158,0.461,0.4835,1.86,9.42,-1.63,0,-0.1,0,0.2948,0.5467,0.5015,0.6021,3.16,9.11,-1.02,0,-0.1,0,-0.5053,-0.4904,-0.5142,0.4895,-9.79,-0.1,-0.07,0,0,0,-0.4293,-0.5718,0.444,0.5398,-2.13,9.5,-0.47,0,0,0,0.5192,0.6444,0.199,0.5247,4.72,8.57,0.85,0,0,0
525728,0,0,1,-22.1704,-15.3149,-10.2612,-3.4058,-0.0018,0.0092,-23.7085,-17.7759,0,9.7061,-0.012,1.1902,-1.1292,-0.2747,0,9.7061,-0.012,1.1902,-1.1292,-0.2747,-8.799,1.3777,4.0538,-0.0503,-0.0124,0.0537,0.4943,-0.3868,0.3773,0.681,0.5607,0.4116,0.5867,-0.4144,-9.7,-0.31,-0.19,0,0,0,0.4174,0.6159,0.4609,0.4835,1.84,9.42,-1.63,0,-0.1,0,0.2948,0.5468,0.5015,0.602,3.23,9.11,-1.07,0,0,0,-0.5053,-0.4904,-0.5142,0.4895,-9.79,-0.1,-0.07,0,0,0,-0.4293,-0.5718,0.4439,0.5398,-2.09,9.49,-0.45,0,0,0,0.5192,0.6444,0.199,0.5247,4.72,8.57,0.85,0,0,0
525729,0,0,1,-22.1484,-15.293,-10.2393,-3.3838,0.0037,0.0128,-23.7085,-17.7759,0,9.7157,-0.0335,0.946,-1.2512,-0.3052,0,9.7157,-0.0335,0.946,-1.2512,-0.3052,-8.799,1.3777,4.0538,-0.0503,-0.0124,0.0537,0.4943,-0.3868,0.3773,0.681,0.5607,0.4116,0.5867,-0.4144,-9.71,-0.27,-0.2,0,0,0,0.4175,0.616,0.4609,0.4834,1.8,9.41,-1.63,0,-0.1,0,0.2948,0.5469,0.5015,0.6019,3.32,9.1,-1.01,0,0,0,-0.5053,-0.4903,-0.5142,0.4895,-9.8,-0.07,-0.08,0,0,0,-0.4293,-0.5718,0.4439,0.5398,-2.09,9.48,-0.43,0,0,0,0.5192,0.6445,0.199,0.5247,4.71,8.57,0.83,0,0,0
525730,0,0,1,-22.1484,-15.293,-10.2393,-3.3838,-0.0073,-0.0146,-23.7085,-17.7759,0.0144,9.7061,0.0192,1.0071,-1.1902,-0.2441,0.0144,9.7061,0.0192,1.0071,-1.1902,-0.2441,-8.8751,1.327,3.9436,-0.0502,-0.0062,0.052,0.4942,-0.3868,0.3773,0.6811,0.5607,0.4116,0.5867,-0.4144,-9.7,-0.23,-0.18,0,0,0,0.4175,0.6161,0.4608,0.4833,1.74,9.38,-1.67,0,0,0,0.2948,0.5469,0.5015,0.6019,3.32,9.1,-1.01,0,0,0,-0.5053,-0.4903,-0.5142,0.4896,-9.79,-0.09,-0.1,0,0,0,-0.4293,-0.5718,0.4439,0.5398,-2.09,9.48,-0.43,0,0,0,0.5193,0.6445,0.1991,0.5246,4.71,8.59,0.82,0,0,0
525731,0,0,1,-22.1484,-15.293,-10.2393,-3.3838,-0.0183,-0.0055,-23.7085,-17.7759,0.0144,9.7013,0.0072,1.1597,-1.0071,-0.2441,0.0144,9.7013,0.0072,1.1597,-1.0071,-0.2441,-8.8751,1.327,3.9436,-0.0502,-0.0062,0.052,0.4942,-0.3868,0.3773,0.6811,0.5606,0.4116,0.5868,-0.4144,-9.67,-0.27,-0.14,0,0,0,0.4175,0.6161,0.4608,0.4833,1.68,9.38,-1.7,0,0,0,0.2948,0.547,0.5014,0.6018,3.4,9.07,-0.99,0,0,0,-0.5053,-0.4903,-0.5142,0.4896,-9.78,-0.08,-0.09,0,0,0,-0.4294,-0.5718,0.4439,0.5398,-2.06,9.48,-0.43,0,0,0,0.5193,0.6445,0.1992,0.5245,4.7,8.62,0.86,0,0,0
525732,0,0,1,-22.1704,-15.3149,-10.2393,-3.3838,0.022,-0.022,-23.7085,-17.7759,-0.0072,9.7252,-0.0096,1.1902,-1.1597,-0.3967,-0.0072,9.7252,-0.0096,1.1902,-1.1597,-0.3967,-8.8741,1.3547,3.8976,-0.0503,0.0171,0.0556,0.494,-0.3868,0.3772,0.6812,0.5606,0.4116,0.5868,-0.4144,-9.67,-0.27,-0.14,0,0,0,0.4175,0.6161,0.4608,0.4833,1.68,9.38,-1.7,0,0,0,0.2948,0.5471,0.5014,0.6018,3.45,9.01,-1.01,0,-0.1,0,-0.5053,-0.4903,-0.5142,0.4896,-9.78,-0.08,-0.09,0,0,0,-0.4294,-0.5719,0.4438,0.5398,-2.06,9.53,-0.42,0,0,0,0.5193,0.6445,0.1992,0.5245,4.7,8.62,0.86,0,0,0
525733,0,0,1,-22.1704,-15.3149,-10.2393,-3.3838,-0.0055,0.0183,-23.7085,-17.7759,0,9.7061,-0.0239,0.7935,-1.2817,-0.4272,0,9.7061,-0.0239,0.7935,-1.2817,-0.4272,-8.8741,1.3547,3.8976,-0.0503,0.0171,0.0556,0.494,-0.3868,0.3772,0.6812,0.5606,0.4116,0.5868,-0.4144,-9.69,-0.24,-0.15,0,0,0,0.4175,0.6162,0.4607,0.4833,1.61,9.35,-1.76,0,0,0,0.2949,0.5472,0.5014,0.6017,3.49,8.97,-1.02,0,-0.1,0,-0.5053,-0.4902,-0.5142,0.4897,-9.77,-0.07,-0.1,0,0,0,-0.4294,-0.5719,0.4438,0.5398,-2.04,9.53,-0.44,0,0,0,0.5193,0.6445,0.1992,0.5244,4.63,8.58,0.85,0,0,0
525734,0,0,1,-22.1704,-15.3149,-10.2393,-3.3838,0.0293,-0.0238,-23.7085,-17.7759,0.0144,9.6678,-0.0479,1.1902,-1.0986,-0.3662,0.0144,9.6678,-0.0479,1.1902,-1.0986,-0.3662,-8.752,1.3356,3.9764,-0.0482,0.0276,0.0549,0.4939,-0.3869,0.3772,0.6813,0.5606,0.4116,0.5868,-0.4145,-9.69,-0.24,-0.14,0,0,0,0.4175,0.6162,0.4607,0.4832,1.56,9.34,-1.83,0,0,0,0.295,0.5474,0.5013,0.6016,3.49,8.96,-1.04,0,-0.1,0,-0.5053,-0.4902,-0.5141,0.4897,-9.79,-0.08,-0.08,0,0,0,-0.4295,-0.5719,0.4437,0.5398,-2.02,9.53,-0.43,0,0,0,0.5194,0.6445,0.1993,0.5243,4.6,8.58,0.89,0,0,0
525735,0,0,1,-22.1704,-15.3149,-10.2393,-3.3838,-0.011,-0.0037,-23.7085,-17.7759,0,9.7348,0,1.1292,-1.2512,-0.4272,0,9.7348,0,1.1292,-1.2512,-0.4272,-8.752,1.3356,3.9764,-0.0482,0.0276,0.0549,0.4939,-0.3869,0.3772,0.6813,0.5606,0.4116,0.5868,-0.4145,-9.67,-0.24,-0.15,0,0,0,0.4175,0.6162,0.4607,0.4832,1.49,9.31,-1.85,0,0,0,0.295,0.5474,0.5013,0.6016,3.49,8.96,-1.04,0,-0.1,0,-0.5053,-0.4902,-0.5141,0.4898,-9.76,-0.09,-0.06,0,0,0,-0.4295,-0.5719,0.4437,0.5398,-2.02,9.53,-0.43,0,0,0,0.5194,0.6445,0.1993,0.5243,4.61,8.55,0.87,0,0,0
525736,0,0,1,-22.1704,-15.293,-10.2393,-3.3618,-0.0018,0.0165,-23.7085,-17.7759,-0.0024,9.6917,0.0335,1.1292,-1.2512,-0.6714,-0.0024,9.6917,0.0335,1.1292,-1.2512,-0.6714,-8.752,1.3356,3.9764,-0.0482,0.0276,0.0549,0.4939,-0.3869,0.3772,0.6813,0.5605,0.4116,0.5868,-0.4145,-9.67,-0.24,-0.15,0,0,0,0.4175,0.6162,0.4607,0.4832,1.49,9.31,-1.85,0,0,0,0.295,0.5475,0.5012,0.6015,3.5,8.95,-1.08,0,-0.1,0,-0.5052,-0.4902,-0.5141,0.4898,-9.76,-0.08,-0.05,0,0,0,-0.4295,-0.5719,0.4437,0.5398,-2.01,9.53,-0.43,0,0,0,0.5194,0.6446,0.1994,0.5242,4.57,8.54,0.83,0,0,0
525737,0,0,1,-22.1484,-15.293,-10.2173,-3.3618,-0.0092,0.0183,-23.7085,-17.7759,0.0766,9.7157,-0.0192,1.1292,-0.946,-0.6104,0.0766,9.7157,-0.0192,1.1292,-0.946,-0.6104,-8.6983,1.3092,3.9799,-0.0465,0.0175,0.0593,0.4937,-0.3869,0.3772,0.6814,0.5605,0.4116,0.5868,-0.4145,-9.67,-0.24,-0.15,0,0,0,0.4175,0.6162,0.4607,0.4832,1.42,9.28,-1.92,0,0,0,0.2951,0.5476,0.5011,0.6014,3.48,8.93,-1.12,0,-0.1,0,-0.5052,-0.4902,-0.5141,0.4898,-9.76,-0.08,-0.05,0,0,0,-0.4295,-0.5719,0.4436,0.5398,-2.04,9.53,-0.45,0,0,0,0.5194,0.6446,0.1994,0.5242,4.57,8.54,0.83,0,0,0
525738,0,0,1,-22.1484,-15.293,-10.2173,-3.3618,0.0037,0.022,-23.7085,-17.7759,0.0048,9.6534,0.0048,1.2512,-1.2207,-0.2747,0.0048,9.6534,0.0048,1.2512,-1.2207,-0.2747,-8.6983,1.3092,3.9799,-0.0465,0.0175,0.0593,0.4937,-0.3869,0.3772,0.6814,0.5605,0.4116,0.5869,-0.4145,-9.68,-0.25,-0.16,0,0,0,0.4175,0.6163,0.4607,0.4832,1.41,9.29,-1.94,0,0,0,0.2952,0.5477,0.501,0.6013,3.45,8.92,-1.16,0,-0.1,0,-0.5052,-0.4902,-0.5141,0.4899,-9.76,-0.11,-0.07,0,0,0,-0.4295,-0.5719,0.4436,0.5398,-2.04,9.53,-0.45,0,0,0,0.5195,0.6446,0.1994,0.5241,4.55,8.55,0.82,0,0,0
525739,0,0,1,-22.1704,-15.3149,-10.2173,-3.3618,-0.0092,0.0201,-23.7085,-17.7759,0.0263,9.7013,-0.0192,1.1292,-1.3428,-0.4883,0.0263,9.7013,-0.0192,1.1292,-1.3428,-0.4883,-8.6405,1.2804,3.9853,-0.0643,0.0078,0.0624,0.4935,-0.387,0.3772,0.6815,0.5604,0.4117,0.5869,-0.4145,-9.72,-0.26,-0.19,0,0,0,0.4175,0.6163,0.4607,0.4832,1.37,9.28,-1.96,0,0,0,0.2953,0.5479,0.5009,0.6012,3.43,8.93,-1.18,0,-0.1,0,-0.5052,-0.4902,-0.5141,0.4899,-9.75,-0.14,-0.06,0,0,0,-0.4295,-0.572,0.4436,0.5398,-2.05,9.51,-0.46,0,0,0,0.5195,0.6446,0.1995,0.524,4.57,8.56,0.8,0,0,0
525740,0,0,1,-22.1704,-15.3149,-10.2173,-3.3618,0.0165,0,-23.7085,-17.7759,-0.0072,9.7923,0.0335,1.2207,-1.1597,-0.6104,-0.0072,9.7923,0.0335,1.2207,-1.1597,-0.6104,-8.6405,1.2804,3.9853,-0.0643,0.0078,0.0624,0.4935,-0.387,0.3772,0.6815,0.5604,0.4117,0.5869,-0.4145,-9.7,-0.25,-0.21,0,0,0,0.4175,0.6163,0.4607,0.4832,1.35,9.29,-1.95,0,0,0,0.2953,0.5479,0.5009,0.6012,3.43,8.93,-1.18,0,-0.1,0,-0.5052,-0.4902,-0.5141,0.49,-9.73,-0.13,-0.06,0,0,0,-0.4295,-0.572,0.4436,0.5398,-2.05,9.51,-0.46,0,0,0,0.5195,0.6447,0.1995,0.524,4.54,8.58,0.81,0,0,0
525741,0,0,1,-22.1704,-15.3149,-10.2173,-3.3618,0.011,0.0165,-23.7085,-17.7759,-0.0096,9.7109,-0.0287,1.2817,-1.1902,-0.2441,-0.0096,9.7109,-0.0287,1.2817,-1.1902,-0.2441,-8.6405,1.2804,3.9853,-0.0643,0.0078,0.0624,0.4935,-0.387,0.3772,0.6815,0.5604,0.4117,0.5869,-0.4145,-9.73,-0.26,-0.23,0,0,0,0.4175,0.6163,0.4607,0.4832,1.35,9.29,-1.95,0,0,0,0.2954,0.548,0.5008,0.6012,3.37,8.9,-1.17,0,-0.1,0,-0.5051,-0.4902,-0.5141,0.49,-9.7,-0.13,-0.03,0,0,0,-0.4296,-0.572,0.4435,0.5398,-2.06,9.55,-0.46,0,0,0,0.5195,0.6447,0.1996,0.5239,4.56,8.62,0.88,0,0,0
525742,0,0,1,-22.1704,-15.3149,-10.2173,-3.3618,-0.0073,-0.0256,-23.7085,-17.7759,0.0263,9.8354,0.0024,1.0376,-1.3733,-0.5798,0.0263,9.8354,0.0024,1.0376,-1.3733,-0.5798,-8.5828,1.2843,4.0118,-0.0709,-0.0155,0.0698,0.4933,-0.387,0.3771,0.6816,0.5604,0.4117,0.5869,-0.4145,-9.73,-0.26,-0.23,0,0,0,0.4175,0.6162,0.4608,0.4832,1.33,9.27,-1.96,0,0,0,0.2955,0.5481,0.5007,0.6011,3.32,8.87,-1.22,0,-0.1,0,-0.5051,-0.4902,-0.514,0.49,-9.69,-0.12,0.01,0,0,0,-0.4296,-0.572,0.4435,0.5398,-2.06,9.54,-0.44,0,0,0,0.5195,0.6447,0.1996,0.5238,4.53,8.63,0.88,0,0,0
525743,0,0,1,-22.1704,-15.293,-10.2173,-3.3398,0.0092,-0.0092,-23.7085,-17.7759,0.0335,9.7205,-0.0144,1.3123,-1.2207,-0.7629,0.0335,9.7205,-0.0144,1.3123,-1.2207,-0.7629,-8.5828,1.2843,4.0118,-0.0709,-0.0155,0.0698,0.4933,-0.387,0.3771,0.6816,0.5603,0.4117,0.5869,-0.4146,-9.75,-0.26,-0.26,0,0,0,0.4175,0.6162,0.4608,0.4832,1.31,9.28,-1.96,0,0,0,0.2955,0.5482,0.5006,0.6011,3.26,8.89,-1.25,0,-0.1,0,-0.5051,-0.4902,-0.514,0.49,-9.69,-0.12,0.01,0,0,0,-0.4296,-0.572,0.4434,0.5398,-2.07,9.54,-0.44,0,0,0,0.5195,0.6447,0.1996,0.5238,4.53,8.63,0.88,0,0,0
525744,0,0,1,-22.1704,-15.293,-10.2173,-3.3398,-0.0146,0.0256,-23.7085,-17.7759,0.0072,9.8378,0.0335,1.2207,-1.2207,-0.5798,0.0072,9.8378,0.0335,1.2207,-1.2207,-0.5798,-8.6548,1.2697,3.9504,-0.0772,-0.0315,0.0717,0.4932,-0.387,0.377,0.6818,0.5603,0.4117,0.5869,-0.4146,-9.75,-0.27,-0.26,0,0,0,0.4175,0.6162,0.4608,0.4832,1.29,9.28,-1.97,0,0,0,0.2956,0.5483,0.5005,0.6011,3.18,8.87,-1.27,0,-0.1,0,-0.5051,-0.4902,-0.514,0.4901,-9.68,-0.13,0.02,0,0,0,-0.4296,-0.572,0.4434,0.5398,-2.09,9.53,-0.44,0,0,0,0.5195,0.6447,0.1996,0.5238,4.51,8.63,0.9,0,0,0
525745,0,0,1,-22.1484,-15.293,-10.1953,-3.3398,-0.0037,-0.0256,-23.7085,-17.7759,0.0407,9.7683,0.0168,1.4343,-1.3123,-0.5188,0.0407,9.7683,0.0168,1.4343,-1.3123,-0.5188,-8.6548,1.2697,3.9504,-0.0772,-0.0315,0.0717,0.4932,-0.387,0.377,0.6818,0.5603,0.4117,0.5869,-0.4146,-9.79,-0.29,-0.29,0,0,0,0.4175,0.6161,0.4609,0.4832,1.29,9.29,-1.96,0,0,0,0.2956,0.5483,0.5005,0.6011,3.18,8.87,-1.27,0,-0.1,0,-0.5051,-0.4902,-0.514,0.4902,-9.72,-0.13,0.03,0,0,0,-0.4296,-0.572,0.4434,0.5398,-2.09,9.55,-0.47,0,0,0,0.5196,0.6448,0.1997,0.5237,4.48,8.64,0.89,0,0,0
525746,0,0,1,-22.1704,-15.3149,-10.1953,-3.3398,-0.0128,0.0092,-23.7085,-17.7759,0.0192,9.7971,0.0144,1.1902,-1.5259,-0.5188,0.0192,9.7971,0.0144,1.1902,-1.5259,-0.5188,-8.6548,1.2697,3.9504,-0.0772,-0.0315,0.0717,0.4932,-0.387,0.377,0.6818,0.5602,0.4117,0.5869,-0.4146,-9.81,-0.34,-0.32,0,0,0,0.4175,0.6161,0.4609,0.4832,1.29,9.29,-1.96,0,0,0,0.2956,0.5484,0.5003,0.6011,3.17,8.89,-1.28,0,0,0,-0.5051,-0.4902,-0.514,0.4902,-9.72,-0.13,0.03,0,0,0,-0.4296,-0.572,0.4434,0.5398,-2.09,9.55,-0.47,0,0,0,0.5196,0.6448,0.1997,0.5236,4.47,8.61,0.88,0,0,0
525747,0,0,1,-22.1704,-15.3149,-10.1953,-3.3398,-0.0055,-0.011,-23.7085,-17.7759,0.0431,9.8474,-0.0072,1.6174,-1.0986,-0.3662,0.0431,9.8474,-0.0072,1.6174,-1.0986,-0.3662,-8.6642,1.2646,4.0084,-0.082,-0.0389,0.0756,0.493,-0.3869,0.3769,0.682,0.5602,0.4117,0.5869,-0.4146,-9.81,-0.34,-0.32,0,0,0,0.4175,0.6161,0.4609,0.4832,1.3,9.3,-1.97,0,0,0,0.2957,0.5485,0.5002,0.6011,3.15,8.92,-1.26,0,0,0,-0.5051,-0.4901,-0.514,0.4902,-9.74,-0.13,0.02,0,0,0,-0.4296,-0.572,0.4434,0.5398,-2.09,9.55,-0.47,0,0,0,0.5196,0.6448,0.1997,0.5236,4.45,8.6,0.82,0,0,0
525748,0,0,1,-22.1704,-15.3149,-10.1953,-3.3398,-0.011,-0.0275,-23.7085,-17.7759,0.0742,9.8641,-0.0168,1.4648,-1.5259,-0.3357,0.0742,9.8641,-0.0168,1.4648,-1.5259,-0.3357,-8.6642,1.2646,4.0084,-0.082,-0.0389,0.0756,0.493,-0.3869,0.3769,0.682,0.5602,0.4117,0.587,-0.4146,-9.83,-0.33,-0.36,0,0,0,0.4175,0.616,0.461,0.4833,1.3,9.33,-1.99,0,0,0,0.2957,0.5485,0.5001,0.6012,3.13,8.92,-1.25,0,0,0,-0.5051,-0.4901,-0.5139,0.4903,-9.74,-0.12,0.04,0,0,0,-0.4297,-0.572,0.4433,0.5398,-2.09,9.55,-0.48,0,0,0,0.5196,0.6448,0.1997,0.5236,4.45,8.6,0.82,0,0,0
525749,0,0,1,-22.1704,-15.293,-10.1953,-3.3179,0.0165,0.0165,-23.7085,-17.7759,0.0383,9.8162,-0.0287,1.5869,-1.3428,-0.3662,0.0383,9.8162,-0.0287,1.5869,-1.3428,-0.3662,-8.6642,1.2646,4.0084,-0.082,-0.0389,0.0756,0.493,-0.3869,0.3769,0.682,0.5602,0.4118,0.587,-0.4146,-9.82,-0.32,-0.36,0,0,0,0.4174,0.616,0.461,0.4833,1.33,9.38,-1.99,0,0,0,0.2958,0.5486,0.4999,0.6013,3.14,8.94,-1.24,0,0,0,-0.505,-0.4901,-0.5139,0.4903,-9.74,-0.14,0.04,0,0,0,-0.4297,-0.572,0.4433,0.5398,-2.11,9.58,-0.45,0,0,0,0.5196,0.6449,0.1998,0.5235,4.45,8.63,0.79,0,0,0
525750,0,0,1,-22.1704,-15.293,-10.1953,-3.3179,-0.0018,0.0128,-23.7085,-17.7759,0.0383,9.8713,-0.0024,1.2817,-1.4343,-0.4272,0.0383,9.8713,-0.0024,1.2817,-1.4343,-0.4272,-8.6411,1.2975,4.0856,-0.0703,-0.057,0.0727,0.4929,-0.3869,0.3768,0.6822,0.5602,0.4118,0.587,-0.4146,-9.83,-0.33,-0.36,0,0,0,0.4174,0.6159,0.4611,0.4833,1.33,9.4,-2,0,0,0,0.2958,0.5486,0.4999,0.6013,3.14,8.94,-1.24,0,0,0,-0.505,-0.4901,-0.5138,0.4904,-9.78,-0.15,0,0,0,0,-0.4297,-0.572,0.4433,0.5398,-2.11,9.59,-0.44,0,0,0,0.5196,0.6449,0.1998,0.5235,4.45,8.66,0.83,0,0,0
525751,0,0,1,-22.1704,-15.293,-10.1953,-3.3179,-0.0055,-0.0073,-23.7085,-17.7759,-0.0072,9.809,-0.0694,1.6479,-1.5259,-0.2136,-0.0072,9.809,-0.0694,1.6479,-1.5259,-0.2136,-8.6411,1.2975,4.0856,-0.0703,-0.057,0.0727,0.4929,-0.3869,0.3768,0.6822,0.5601,0.4118,0.587,-0.4146,-9.87,-0.33,-0.39,0,0,0,0.4174,0.6159,0.4611,0.4833,1.33,9.4,-2,0,0,0,0.2958,0.5486,0.4998,0.6013,3.14,8.97,-1.22,-0.1,0,0,-0.505,-0.4901,-0.5138,0.4905,-9.81,-0.18,0,0,0,0,-0.4297,-0.572,0.4433,0.5398,-2.11,9.59,-0.44,0,0,0,0.5196,0.6449,0.1998,0.5234,4.44,8.75,0.85,0,0,0
525752,0,0,1,-22.1704,-15.3149,-10.1733,-3.3179,-0.0165,0.0128,-23.7085,-17.7759,0.1173,9.9168,-0.0239,1.5564,-1.5564,-0.4578,0.1173,9.9168,-0.0239,1.5564,-1.5564,-0.4578,-8.6568,1.3001,4.1051,-0.0663,-0.0775,0.0676,0.4927,-0.3868,0.3766,0.6824,0.5601,0.4118,0.587,-0.4146,-9.87,-0.33,-0.39,0,0,0,0.4174,0.6158,0.4612,0.4833,1.36,9.41,-2.03,0,0,0,0.2958,0.5486,0.4996,0.6014,3.13,9,-1.23,-0.1,0,0,-0.505,-0.4901,-0.5138,0.4905,-9.81,-0.18,0,0,0,0,-0.4297,-0.572,0.4433,0.5398,-2.1,9.6,-0.44,0,0,0,0.5196,0.645,0.1999,0.5233,4.43,8.75,0.85,0,0,0
525753,0,0,1,-22.1704,-15.3149,-10.1733,-3.3179,-0.0018,-0.0128,-23.7085,-17.7759,-0.0096,9.7731,-0.0862,1.5259,-1.6479,-0.3052,-0.0096,9.7731,-0.0862,1.5259,-1.6479,-0.3052,-8.6568,1.3001,4.1051,-0.0663,-0.0775,0.0676,0.4927,-0.3868,0.3766,0.6824,0.5601,0.4118,0.587,-0.4146,-9.83,-0.33,-0.42,0,0,0,0.4174,0.6158,0.4613,0.4834,1.4,9.43,-2.05,0,0,0,0.2958,0.5486,0.4995,0.6016,3.19,9.02,-1.22,-0.1,0,0.1,-0.505,-0.4901,-0.5138,0.4905,-9.81,-0.14,-0.03,0,0,0,-0.4297,-0.572,0.4433,0.5399,-2.08,9.61,-0.4,0,0,0,0.5196,0.645,0.1999,0.5233,4.43,8.75,0.85,0,0,0
525754,0,0,1,-22.1704,-15.293,-10.1733,-3.2959,0.0165,-0.0073,-23.7085,-17.7759,0.0263,9.8665,-0.0934,1.4648,-1.5564,-0.3967,0.0263,9.8665,-0.0934,1.4648,-1.5564,-0.3967,-8.6568,1.3001,4.1051,-0.0663,-0.0775,0.0676,0.4927,-0.3868,0.3766,0.6824,0.5601,0.4118,0.5871,-0.4146,-9.87,-0.35,-0.41,0,0,0,0.4174,0.6157,0.4614,0.4834,1.45,9.47,-2.07,0,0,0,0.2957,0.5486,0.4993,0.6017,3.21,9.09,-1.19,-0.1,0,0.1,-0.505,-0.4901,-0.5137,0.4906,-9.79,-0.16,0,0,0,0,-0.4297,-0.572,0.4433,0.5399,-2.08,9.62,-0.41,0,0,0,0.5196,0.645,0.1999,0.5232,4.41,8.78,0.85,0,0,0
525755,0,0,1,-22.1704,-15.293,-10.1733,-3.2959,0.0073,0.0037,-23.7085,-17.7759,-0.0263,9.809,-0.0311,1.6479,-1.4648,-0.5798,-0.0263,9.809,-0.0311,1.6479,-1.4648,-0.5798,-8.7031,1.282,4.0542,-0.0564,-0.0987,0.066,0.4927,-0.3866,0.3765,0.6827,0.5601,0.4118,0.5871,-0.4146,-9.83,-0.34,-0.42,0,0,0,0.4174,0.6156,0.4615,0.4835,1.54,9.5,-2.13,0,0.1,0,0.2957,0.5486,0.4993,0.6017,3.21,9.09,-1.19,-0.1,0,0.1,-0.505,-0.4901,-0.5137,0.4907,-9.8,-0.15,-0.04,0,0,0,-0.4297,-0.572,0.4433,0.5399,-2.05,9.61,-0.4,0,0,0,0.5197,0.6451,0.1999,0.5231,4.44,8.75,0.83,0,0,0
525756,0,0,1,-22.1704,-15.293,-10.1733,-3.2959,-0.0165,-0.0183,-23.7085,-17.7759,0.0503,9.8617,-0.103,1.8005,-1.4954,-0.5188,0.0503,9.8617,-0.103,1.8005,-1.4954,-0.5188,-8.7031,1.282,4.0542,-0.0564,-0.0987,0.066,0.4927,-0.3866,0.3765,0.6827,0.5601,0.4118,0.5871,-0.4145,-9.815,-0.325,-0.4,0,0,0,0.4174,0.6156,0.4615,0.4835,1.54,9.5,-2.13,0,0.1,0,0.2957,0.5486,0.4992,0.6018,3.2,9.11,-1.22,-0.1,0,0.1,-0.505,-0.4901,-0.5136,0.4907,-9.8,-0.13,-0.04,0,0,0,-0.4297,-0.572,0.4433,0.5399,-2.05,9.61,-0.4,0,0,0,0.5197,0.6451,0.1998,0.5231,4.45,8.75,0.82,0,0,0
525757,0,0,1,-22.1704,-15.293,-10.1733,-3.2959,-0.0055,0.0201,-23.7085,-17.7759,-0.0048,9.73,-0.0694,1.4038,-1.8311,-0.5188,-0.0048,9.73,-0.0694,1.4038,-1.8311,-0.5188,-8.7178,1.2959,4.04,-0.0558,-0.1126,0.0598,0.4926,-0.3865,0.3763,0.6829,0.5601,0.4118,0.5871,-0.4145,-9.8,-0.31,-0.38,0,0,0,0.4173,0.6155,0.4616,0.4835,1.66,9.51,-2.16,0,0.1,0,0.2956,0.5486,0.499,0.602,3.21,9.12,-1.25,0,0,0.1,-0.505,-0.4901,-0.5136,0.4907,-9.8,-0.13,-0.04,0,0,0,-0.4297,-0.572,0.4433,0.5399,-2.07,9.61,-0.39,0,0,0,0.5197,0.6451,0.1998,0.5231,4.45,8.75,0.82,0,0,0
525758,0,0,1,-22.1704,-15.293,-10.1733,-3.2959,-0.0165,-0.0073,-23.7085,-17.7759,0.0263,9.7348,-0.067,1.5869,-1.5869,-0.5188,0.0263,9.7348,-0.067,1.5869,-1.5869,-0.5188,-8.7178,1.2959,4.04,-0.0558,-0.1126,0.0598,0.4926,-0.3865,0.3763,0.6829,0.5601,0.4118,0.5872,-0.4145,-9.78,-0.29,-0.37,0,0,0,0.4173,0.6154,0.4617,0.4836,1.75,9.52,-2.17,0,0.1,0,0.2956,0.5486,0.4989,0.6021,3.19,9.15,-1.22,0,0,0.1,-0.505,-0.49,-0.5136,0.4908,-9.81,-0.16,-0.04,0,0,0,-0.4296,-0.572,0.4433,0.54,-2.08,9.61,-0.39,0,0,0,0.5197,0.6452,0.1998,0.523,4.46,8.72,0.8,0,0,0
525759,0,0,1,-22.1704,-15.3149,-10.1514,-3.2959,-0.0037,-0.0092,-23.7085,-17.7759,0.0192,9.7205,-0.0215,1.4343,-1.1902,-0.4883,0.0192,9.7205,-0.0215,1.4343,-1.1902,-0.4883,-8.7178,1.2959,4.04,-0.0558,-0.1126,0.0598,0.4926,-0.3865,0.3763,0.6829,0.56,0.4117,0.5872,-0.4145,-9.75,-0.29,-0.36,0,0,0,0.4172,0.6152,0.4619,0.4836,1.84,9.53,-2.17,0,0.1,0,0.2955,0.5487,0.4988,0.6022,3.21,9.16,-1.14,0,0,0.1,-0.505,-0.49,-0.5136,0.4909,-9.8,-0.15,-0.05,0,0,0,-0.4296,-0.5719,0.4433,0.54,-2.09,9.58,-0.38,0,0,0,0.5198,0.6452,0.1998,0.5229,4.5,8.71,0.83,0,0,0
525760,0,0,1,-22.1704,-15.293,-10.1514,-3.2739,0.0146,0.0092,-23.7085,-17.7759,-0.0024,9.7492,-0.0862,1.4648,-1.5259,-0.5493,-0.0024,9.7492,-0.0862,1.4648,-1.5259,-0.5493,-8.745,1.3158,4.033,-0.0536,-0.117,0.0591,0.4926,-0.3863,0.3761,0.6831,0.56,0.4117,0.5872,-0.4145,-9.75,-0.29,-0.35,0,0,0,0.4172,0.6151,0.462,0.4837,1.95,9.51,-2.13,0,0.1,0,0.2954,0.5487,0.4986,0.6023,3.23,9.07,-1.13,0,0,0.1,-0.505,-0.49,-0.5135,0.4909,-9.84,-0.16,-0.08,0,0,0,-0.4296,-0.5719,0.4433,0.54,-2.09,9.58,-0.38,0,0,0,0.5198,0.6453,0.1998,0.5228,4.51,8.69,0.85,0,0,0
525761,0,0,1,-22.1704,-15.293,-10.1514,-3.2739,-0.0055,-0.0201,-23.7085,-17.7759,0,9.754,-0.0263,1.5869,-1.1902,-0.4272,0,9.754,-0.0263,1.5869,-1.1902,-0.4272,-8.745,1.3158,4.033,-0.0536,-0.117,0.0591,0.4926,-0.3863,0.3761,0.6831,0.56,0.4117,0.5872,-0.4145,-9.75,-0.29,-0.35,0,0,0,0.4172,0.6151,0.462,0.4837,1.95,9.51,-2.13,0,0.1,0,0.2954,0.5487,0.4986,0.6023,3.23,9.07,-1.13,0,0,0.1,-0.505,-0.49,-0.5135,0.491,-9.83,-0.14,-0.09,0,0,0,-0.4296,-0.5719,0.4433,0.5401,-2.06,9.59,-0.4,0,0,0,0.5198,0.6454,0.1997,0.5227,4.57,8.68,0.82,0,0,0
525762,0,0,1,-22.1704,-15.293,-10.1514,-3.2739,0.0183,-0.0037,-23.7085,-17.7759,0.0239,9.73,-0.0838,1.4343,-1.5869,-0.2441,0.0239,9.73,-0.0838,1.4343,-1.5869,-0.2441,-8.796,1.3014,3.9635,-0.0602,-0.1226,0.057,0.4925,-0.3861,0.3759,0.6834,0.56,0.4117,0.5873,-0.4145,-9.72,-0.27,-0.29,0,0,0,0.4171,0.615,0.4622,0.4837,2.03,9.49,-2.08,0,0.1,0,0.2953,0.5488,0.4985,0.6025,3.24,9,-1.31,0,0,0.1,-0.505,-0.49,-0.5135,0.491,-9.83,-0.14,-0.09,0,0,0,-0.4296,-0.5718,0.4433,0.5401,-2.04,9.59,-0.39,0,0,0,0.5199,0.6454,0.1997,0.5226,4.6,8.67,0.81,0,0,0
525763,0,0,1,-22.1704,-15.293,-10.1514,-3.2739,-0.0073,-0.0238,-23.7085,-17.7759,0.0192,9.7492,-0.0622,1.5259,-1.1292,-0.5493,0.0192,9.7492,-0.0622,1.5259,-1.1292,-0.5493,-8.796,1.3014,3.9635,-0.0602,-0.1226,0.057,0.4925,-0.3861,0.3759,0.6834,0.56,0.4117,0.5873,-0.4145,-9.72,-0.27,-0.29,0,0,0,0.417,0.6149,0.4623,0.4838,2.09,9.48,-2.07,0,0.1,0,0.2952,0.5488,0.4984,0.6026,3.14,9.03,-1.36,0,0,0.1,-0.505,-0.49,-0.5134,0.4911,-9.85,-0.15,-0.11,0,0,0,-0.4296,-0.5718,0.4434,0.5401,-2.07,9.58,-0.41,0,0,0,0.5199,0.6454,0.1997,0.5226,4.6,8.67,0.81,0,0,0
525764,0,0,1,-22.1704,-15.293,-10.1514,-3.2739,0.0403,0.0238,-23.7085,-17.7759,-0.0263,9.7252,-0.0862,1.4954,-1.1597,-0.5188,-0.0263,9.7252,-0.0862,1.4954,-1.1597,-0.5188,-8.796,1.3014,3.9635,-0.0602,-0.1226,0.057,0.4925,-0.3861,0.3759,0.6834,0.56,0.4117,0.5873,-0.4145,-9.7,-0.3,-0.31,0,0,0,0.417,0.6148,0.4625,0.4838,2.16,9.46,-2.04,0,0.1,0,0.2951,0.5487,0.4983,0.6028,3.23,9.14,-1.32,0,0.1,0.1,-0.505,-0.4899,-0.5134,0.4911,-9.88,-0.15,-0.11,0,0,0,-0.4295,-0.5718,0.4434,0.5402,-2.1,9.56,-0.42,0,0,0,0.5199,0.6455,0.1996,0.5226,4.63,8.68,0.78,0,0,0
525765,0,0,1,-22.1704,-15.293,-10.1514,-3.2739,0.0073,0.022,-23.7085,-17.7759,0,9.6917,-0.067,1.4343,-1.1597,-0.6104,0,9.6917,-0.067,1.4343,-1.1597,-0.6104,-8.8325,1.3557,3.9783,-0.0658,-0.1204,0.057,0.4925,-0.3859,0.3757,0.6836,0.5599,0.4117,0.5873,-0.4145,-9.7,-0.29,-0.3,0,0,0,0.4169,0.6147,0.4626,0.4839,2.26,9.46,-2.04,0,0.1,0,0.2951,0.5487,0.4983,0.6028,3.23,9.14,-1.32,0,0.1,0.1,-0.505,-0.4899,-0.5133,0.4912,-9.89,-0.17,-0.12,0,0,0,-0.4295,-0.5718,0.4434,0.5402,-2.1,9.56,-0.42,0,0,0,0.5199,0.6455,0.1995,0.5225,4.65,8.64,0.8,0,0,0
525766,0,0,1,-22.1704,-15.271,-10.1514,-3.252,-0.0165,0.0073,-23.7085,-17.7759,0.0072,9.7492,-0.0431,1.4648,-1.0986,-0.7324,0.0072,9.7492,-0.0431,1.4648,-1.0986,-0.7324,-8.8325,1.3557,3.9783,-0.0658,-0.1204,0.057,0.4925,-0.3859,0.3757,0.6836,0.5599,0.4117,0.5874,-0.4145,-9.69,-0.27,-0.3,0,0,0,0.4169,0.6147,0.4626,0.4839,2.26,9.46,-2.04,0,0.1,0,0.2949,0.5487,0.4982,0.6029,3.3,9.31,-1.18,0,0.1,0.1,-0.505,-0.4899,-0.5133,0.4913,-9.95,-0.16,-0.12,0,0,0,-0.4295,-0.5717,0.4434,0.5402,-2.12,9.54,-0.43,0,0,0,0.5199,0.6456,0.1995,0.5224,4.65,8.62,0.8,0,0,0
525767,0,0,1,-22.1704,-15.293,-10.1294,-3.252,0.0128,-0.011,-23.7085,-17.7759,0.0407,9.6869,-0.079,1.3123,-1.3428,-0.7324,0.0407,9.6869,-0.079,1.3123,-1.3428,-0.7324,-8.896,1.4224,3.9281,-0.0569,-0.1046,0.058,0.4924,-0.3858,0.3755,0.6839,0.5599,0.4118,0.5874,-0.4145,-9.71,-0.28,-0.29,0,0,0,0.4168,0.6146,0.4628,0.484,2.37,9.43,-1.98,0,0.1,0,0.2948,0.5486,0.4982,0.6031,3.33,9.45,-1.04,0,0.1,0.1,-0.505,-0.4899,-0.5133,0.4913,-9.95,-0.16,-0.12,0,0,0,-0.4295,-0.5717,0.4435,0.5402,-2.13,9.55,-0.46,0,0,0,0.5199,0.6456,0.1994,0.5224,4.66,8.59,0.77,0,0,0
525768,0,0,1,-22.1704,-15.293,-10.1294,-3.252,0.0128,-0.0201,-23.7085,-17.7759,0.0622,9.7875,-0.0551,1.4648,-0.9766,-0.4883,0.0622,9.7875,-0.0551,1.4648,-0.9766,-0.4883,-8.896,1.4224,3.9281,-0.0569,-0.1046,0.058,0.4924,-0.3858,0.3755,0.6839,0.5599,0.4118,0.5874,-0.4145,-9.71,-0.28,-0.29,0,0,0,0.4167,0.6144,0.4629,0.484,2.49,9.45,-1.9,0,0.1,0,0.2947,0.5486,0.4981,0.6033,3.31,9.51,-0.99,0,0.1,0.1,-0.5049,-0.4899,-0.5132,0.4913,-9.93,-0.17,-0.13,0,0,0,-0.4295,-0.5716,0.4435,0.5403,-2.16,9.54,-0.46,0,0,0,0.5199,0.6456,0.1994,0.5224,4.66,8.59,0.77,0,0,0
525769,0,0,1,-22.1704,-15.293,-10.1294,-3.252,0.0037,-0.011,-23.7085,-17.7759,0,9.7109,-0.0048,1.1902,-1.2207,-0.5493,0,9.7109,-0.0048,1.1902,-1.2207,-0.5493,-8.896,1.4224,3.9281,-0.0569,-0.1046,0.058,0.4924,-0.3858,0.3755,0.6839,0.5599,0.4117,0.5874,-0.4145,-9.69,-0.28,-0.3,0,0,0,0.4166,0.6143,0.4631,0.4841,2.55,9.46,-1.83,0,0.1,0,0.2945,0.5485,0.4981,0.6034,3.33,9.43,-1.01,0,0.1,0,-0.5049,-0.4899,-0.5132,0.4914,-9.97,-0.17,-0.11,0,0,0,-0.4295,-0.5716,0.4435,0.5403,-2.17,9.53,-0.49,0,0,0,0.52,0.6457,0.1993,0.5223,4.67,8.56,0.77,0,0,0
525770,0,0,1,-22.1704,-15.293,-10.1294,-3.252,0.0055,-0.0146,-23.7085,-17.7759,0.0287,9.6678,-0.1221,1.0986,-1.0986,-0.7935,0.0287,9.6678,-0.1221,1.0986,-1.0986,-0.7935,-8.9369,1.4576,3.8768,-0.0632,-0.0717,0.0586,0.4923,-0.3857,0.3754,0.6841,0.5598,0.4117,0.5874,-0.4145,-9.73,-0.29,-0.29,0,0,0,0.4165,0.6142,0.4632,0.4842,2.66,9.49,-1.73,0,0.1,0,0.2945,0.5485,0.4981,0.6034,3.33,9.43,-1.01,0,0.1,0,-0.5049,-0.4899,-0.5132,0.4915,-9.93,-0.17,-0.11,0,0,0,-0.4295,-0.5716,0.4435,0.5403,-2.17,9.53,-0.49,0,0,0,0.52,0.6457,0.1993,0.5223,4.69,8.54,0.77,0,0,0
525771,0,0,1,-22.1704,-15.293,-10.1294,-3.252,0,0.0092,-23.7085,-17.7759,0.0455,9.7492,0.0048,1.3733,-0.885,-0.6409,0.0455,9.7492,0.0048,1.3733,-0.885,-0.6409,-8.9369,1.4576,3.8768,-0.0632,-0.0717,0.0586,0.4923,-0.3857,0.3754,0.6841,0.5598,0.4118,0.5874,-0.4145,-9.73,-0.3,-0.26,0,0,0,0.4164,0.6141,0.4633,0.4843,2.7,9.48,-1.68,0,0.1,0,0.2943,0.5485,0.4981,0.6035,3.3,9.33,-1.01,0,0.1,0,-0.5049,-0.4899,-0.5131,0.4915,-9.93,-0.18,-0.09,0,0,0,-0.4295,-0.5716,0.4435,0.5403,-2.17,9.53,-0.49,0,0,0,0.52,0.6458,0.1992,0.5222,4.71,8.53,0.76,0,0,0
525772,0,0,1,-22.1704,-15.271,-10.1294,-3.23,-0.0055,-0.0037,-23.7085,-17.7759,0.0694,9.8138,0.0383,1.3428,-0.885,-0.5188,0.0694,9.8138,0.0383,1.3428,-0.885,-0.5188,-8.9565,1.4707,3.812,-0.0698,-0.0344,0.0622,0.4922,-0.3856,0.3753,0.6843,0.5598,0.4118,0.5874,-0.4145,-9.73,-0.3,-0.26,0,0,0,0.4164,0.6141,0.4633,0.4843,2.7,9.48,-1.68,0,0.1,0,0.2942,0.5484,0.4981,0.6037,3.37,9.19,-1.08,0,0.1,0,-0.5048,-0.4899,-0.5131,0.4916,-9.89,-0.19,-0.09,0,0,0,-0.4294,-0.5715,0.4436,0.5404,-2.2,9.52,-0.5,0,0,0,0.52,0.6458,0.1991,0.5222,4.68,8.52,0.76,0,0,0
525773,0,0,1,-22.1704,-15.271,-10.1294,-3.23,-0.0146,0.022,-23.7085,-17.7759,0.1365,9.7923,-0.0335,0.8545,-1.2512,-0.8545,0.1365,9.7923,-0.0335,0.8545,-1.2512,-0.8545,-8.9565,1.4707,3.812,-0.0698,-0.0344,0.0622,0.4922,-0.3856,0.3753,0.6843,0.5598,0.4118,0.5874,-0.4145,-9.68,-0.3,-0.25,0,0,0,0.4163,0.614,0.4635,0.4844,2.73,9.43,-1.67,0,0.1,0,0.294,0.5483,0.4982,0.6038,3.39,9.15,-1.06,0,0.1,0,-0.5048,-0.4899,-0.5131,0.4916,-9.89,-0.19,-0.09,0,0,0,-0.4294,-0.5715,0.4436,0.5404,-2.2,9.5,-0.51,0,0,0,0.52,0.6458,0.1991,0.5222,4.68,8.52,0.76,0,0,0
525774,0,0,1,-22.1704,-15.271,-10.1294,-3.23,-0.0183,-0.0037,-23.7085,-17.7759,0.0982,9.7971,-0.0192,1.0376,-1.1292,-0.6104,0.0982,9.7971,-0.0192,1.0376,-1.1292,-0.6104,-8.9565,1.4707,3.812,-0.0698,-0.0344,0.0622,0.4922,-0.3856,0.3753,0.6843,0.5597,0.4118,0.5875,-0.4145,-9.71,-0.3,-0.25,0,0,0,0.4162,0.614,0.4636,0.4844,2.69,9.4,-1.7,0,0.1,0,0.2938,0.5482,0.4982,0.604,3.47,9.12,-1.07,0,0.1,0,-0.5048,-0.4899,-0.5131,0.4916,-9.88,-0.19,-0.09,0,0,0,-0.4294,-0.5714,0.4437,0.5404,-2.2,9.5,-0.5,0,0,0,0.52,0.6459,0.1991,0.5221,4.66,8.52,0.77,0,0,0
525775,0,0,1,-22.1924,-15.293,-10.1294,-3.23,0.0165,-0.0256,-23.7085,-17.7759,0.1101,9.7875,-0.0431,1.0376,-1.1597,-0.6104,0.1101,9.7875,-0.0431,1.0376,-1.1597,-0.6104,-8.829,1.5137,3.9774,-0.0567,-0.0056,0.0629,0.492,-0.3856,0.3752,0.6844,0.5597,0.4118,0.5875,-0.4145,-9.74,-0.3,-0.24,0,0,0,0.4162,0.614,0.4637,0.4844,2.65,9.35,-1.73,0,0,0,0.2937,0.5481,0.4982,0.6041,3.57,9.11,-1.01,0,0.1,0,-0.5048,-0.4899,-0.5131,0.4917,-9.84,-0.18,-0.08,0,0,0,-0.4294,-0.5714,0.4437,0.5405,-2.25,9.52,-0.51,0,0,0,0.52,0.6459,0.199,0.5221,4.65,8.53,0.81,0,0,0
525776,0,0,1,-22.1704,-15.293,-10.1074,-3.23,-0.0128,-0.0055,-23.7085,-17.7759,0.103,9.8665,-0.0239,0.9766,-1.0071,-0.8545,0.103,9.8665,-0.0239,0.9766,-1.0071,-0.8545,-8.829,1.5137,3.9774,-0.0567,-0.0056,0.0629,0.492,-0.3856,0.3752,0.6844,0.5597,0.4118,0.5875,-0.4145,-9.72,-0.34,-0.23,0,0,0,0.4162,0.614,0.4637,0.4844,2.65,9.35,-1.73,0,0,0,0.2937,0.5481,0.4982,0.6041,3.57,9.11,-1.01,0,0.1,0,-0.5047,-0.49,-0.513,0.4917,-9.8,-0.18,-0.03,0,0,0,-0.4294,-0.5714,0.4437,0.5405,-2.25,9.52,-0.51,0,0,0,0.52,0.646,0.1989,0.522,4.63,8.55,0.81,0,0,0
525777,0,0,1,-22.1704,-15.293,-10.1074,-3.23,-0.0018,0.0201,-23.7085,-17.7759,0.1125,9.8809,0.012,0.824,-1.0681,-0.6104,0.1125,9.8809,0.012,0.824,-1.0681,-0.6104,-8.6947,1.4908,4.0407,-0.0252,0.002,0.0558,0.4919,-0.3856,0.3752,0.6845,0.5597,0.4118,0.5875,-0.4145,-9.72,-0.34,-0.23,0,0,0,0.4161,0.6139,0.4638,0.4844,2.6,9.32,-1.78,0,0,0,0.2935,0.548,0.4983,0.6043,3.69,9.08,-0.96,0,0.1,0,-0.5047,-0.49,-0.513,0.4917,-9.8,-0.18,-0.03,0,0,0,-0.4293,-0.5714,0.4437,0.5405,-2.25,9.5,-0.5,0,0,0,0.52,0.6461,0.1989,0.522,4.59,8.55,0.8,0,0,0
525778,0,0,1,-22.1704,-15.293,-10.1074,-3.23,-0.0165,-0.0092,-23.7085,-17.7759,0.1149,9.9311,0.0192,0.4883,-1.2817,-0.5798,0.1149,9.9311,0.0192,0.4883,-1.2817,-0.5798,-8.6947,1.4908,4.0407,-0.0252,0.002,0.0558,0.4919,-0.3856,0.3752,0.6845,0.5597,0.4118,0.5875,-0.4145,-9.73,-0.34,-0.27,0,0,0,0.416,0.6139,0.4639,0.4844,2.56,9.31,-1.82,0,0,0,0.2933,0.5479,0.4983,0.6044,3.82,9.07,-0.9,0,0.1,0,-0.5047,-0.49,-0.513,0.4917,-9.78,-0.19,-0.01,0,0,0,-0.4293,-0.5713,0.4438,0.5405,-2.29,9.49,-0.49,0,0,0,0.52,0.6461,0.1989,0.522,4.59,8.55,0.8,0,0,0
525779,0,0,1,-22.1704,-15.293,-10.1074,-3.23,0.0256,-0.022,-23.7085,-17.7759,0.1269,9.9359,0.0192,0.7019,-1.1292,-0.6409,0.1269,9.9359,0.0192,0.7019,-1.1292,-0.6409,-8.6066,1.4167,4.0077,-0.0183,-0.0023,0.0573,0.4918,-0.3856,0.3752,0.6846,0.5596,0.4118,0.5875,-0.4145,-9.73,-0.36,-0.27,0,0,0,0.416,0.6139,0.4639,0.4844,2.47,9.26,-1.84,0,0,0,0.2932,0.5478,0.4983,0.6045,3.93,9.03,-0.88,0,0.1,0,-0.5046,-0.49,-0.513,0.4918,-9.75,-0.21,0,0,0,0,-0.4293,-0.5713,0.4438,0.5405,-2.28,9.49,-0.51,0,0,0,0.52,0.6461,0.1988,0.5219,4.56,8.59,0.8,0,0,0
525780,0,0,1,-22.1704,-15.271,-10.1074,-3.208,0,-0.0128,-23.7085,-17.7759,0.0742,9.8306,-0.0263,0.8545,-1.4954,-0.5798,0.0742,9.8306,-0.0263,0.8545,-1.4954,-0.5798,-8.6066,1.4167,4.0077,-0.0183,-0.0023,0.0573,0.4918,-0.3856,0.3752,0.6846,0.5596,0.4118,0.5875,-0.4145,-9.8,-0.35,-0.26,0,0,0,0.4159,0.6139,0.464,0.4844,2.41,9.27,-1.83,0,0,0,0.293,0.5477,0.4984,0.6047,4.01,9.02,-0.82,0,0.1,0,-0.5046,-0.49,-0.513,0.4918,-9.74,-0.18,0.03,0,0,0,-0.4293,-0.5713,0.4438,0.5405,-2.32,9.49,-0.5,0,0,0,0.52,0.6462,0.1988,0.5219,4.57,8.59,0.82,0,0,0
525781,0,0,1,-22.1704,-15.271,-10.1074,-3.208,-0.0018,-0.0256,-23.7085,-17.7759,0.1077,9.9335,0.0215,0.8545,-1.2817,-0.5798,0.1077,9.9335,0.0215,0.8545,-1.2817,-0.5798,-8.6066,1.4167,4.0077,-0.0183,-0.0023,0.0573,0.4918,-0.3856,0.3752,0.6846,0.5596,0.4118,0.5875,-0.4146,-9.78,-0.36,-0.25,0,0,0,0.4159,0.6139,0.464,0.4844,2.41,9.27,-1.83,0,0,0,0.293,0.5477,0.4984,0.6047,4.01,9.02,-0.82,0,0.1,0,-0.5046,-0.49,-0.513,0.4919,-9.69,-0.18,0.05,0,0,0,-0.4293,-0.5713,0.4438,0.5405,-2.32,9.49,-0.5,0,0,0,0.52,0.6463,0.1987,0.5218,4.52,8.59,0.85,0,0,0
525782,0,0,1,-22.1704,-15.271,-10.1074,-3.208,0.0128,-0.011,-23.7085,-17.7759,0.1556,9.9455,0.0599,0.7019,-1.0681,-0.3357,0.1556,9.9455,0.0599,0.7019,-1.0681,-0.3357,-8.5379,1.3922,3.9879,-0.0241,-0.0292,0.0645,0.4917,-0.3855,0.3752,0.6847,0.5596,0.4118,0.5875,-0.4146,-9.78,-0.36,-0.25,0,0,0,0.4159,0.6139,0.464,0.4844,2.37,9.27,-1.78,0,0,0,0.2929,0.5476,0.4984,0.6048,4.06,8.97,-0.81,0,0.1,0,-0.5046,-0.49,-0.513,0.4919,-9.69,-0.18,0.05,0,0,0,-0.4292,-0.5713,0.4439,0.5405,-2.35,9.48,-0.51,0,0,0,0.52,0.6463,0.1987,0.5218,4.52,8.59,0.85,0,0,0
525783,0,0,1,-22.1704,-15.271,-10.1074,-3.208,-0.0073,-0.0256,-23.7085,-17.7759,0.1197,9.979,-0.0527,0.4883,-1.4648,-0.5188,0.1197,9.979,-0.0527,0.4883,-1.4648,-0.5188,-8.5379,1.3922,3.9879,-0.0241,-0.0292,0.0645,0.4917,-0.3855,0.3752,0.6847,0.5595,0.4119,0.5876,-0.4146,-9.78,-0.37,-0.26,0,0,0,0.4159,0.6139,0.464,0.4844,2.29,9.28,-1.75,0,0,0,0.2928,0.5475,0.4984,0.6049,4.12,8.96,-0.8,0,0.1,0,-0.5045,-0.49,-0.513,0.4919,-9.73,-0.16,0.05,0,0,0,-0.4292,-0.5712,0.4439,0.5406,-2.38,9.48,-0.51,0,0,0,0.52,0.6463,0.1986,0.5217,4.51,8.58,0.86,0,0,0
525784,0,0,1,-22.1924,-15.293,-10.1074,-3.208,-0.0092,-0.0201,-23.7085,-17.7759,0.146,9.9862,0.0096,0.5798,-1.3123,-0.4272,0.146,9.9862,0.0096,0.5798,-1.3123,-0.4272,-8.5065,1.3881,4.0262,-0.0368,-0.0648,0.0733,0.4916,-0.3854,0.3752,0.6849,0.5595,0.4119,0.5876,-0.4146,-9.78,-0.39,-0.31,0,0,0,0.4159,0.6139,0.464,0.4843,2.27,9.31,-1.72,0,0,0,0.2927,0.5475,0.4984,0.605,4.14,8.94,-0.77,0,0,0,-0.5045,-0.49,-0.513,0.4919,-9.74,-0.18,0.07,0,0,0,-0.4292,-0.5712,0.444,0.5406,-2.4,9.48,-0.54,0,0,0,0.52,0.6464,0.1986,0.5216,4.53,8.61,0.85,0,-0.1,0
525785,0,0,1,-22.1924,-15.293,-10.1074,-3.208,0.0146,0.0165,-23.7085,-17.7759,0.1269,9.9192,0.0048,0.2441,-1.5564,-0.3357,0.1269,9.9192,0.0048,0.2441,-1.5564,-0.3357,-8.5065,1.3881,4.0262,-0.0368,-0.0648,0.0733,0.4916,-0.3854,0.3752,0.6849,0.5595,0.4119,0.5876,-0.4146,-9.8,-0.38,-0.34,0,0,0,0.416,0.6139,0.464,0.4843,2.21,9.33,-1.69,0,0,0,0.2926,0.5475,0.4984,0.605,4.14,8.9,-0.77,0,0,0,-0.5045,-0.49,-0.513,0.492,-9.73,-0.2,0.07,0,0,0,-0.4292,-0.5712,0.444,0.5406,-2.41,9.49,-0.52,0,0,0,0.52,0.6465,0.1985,0.5215,4.53,8.6,0.86,0,-0.1,0
525786,0,0,1,-22.1704,-15.293,-10.0854,-3.208,-0.011,0.0146,-23.7085,-17.7759,0.1149,9.9335,-0.0263,0.3967,-1.5869,-0.5798,0.1149,9.9335,-0.0263,0.3967,-1.5869,-0.5798,-8.5065,1.3881,4.0262,-0.0368,-0.0648,0.0733,0.4916,-0.3854,0.3752,0.6849,0.5595,0.4119,0.5876,-0.4146,-9.79,-0.39,-0.38,0,0,0,0.416,0.6139,0.464,0.4843,2.21,9.33,-1.69,0,0,0,0.2926,0.5475,0.4984,0.605,4.14,8.9,-0.77,0,0,0,-0.5044,-0.49,-0.513,0.492,-9.74,-0.17,0.06,0,0,0,-0.4292,-0.5712,0.444,0.5406,-2.41,9.49,-0.52,0,0,0,0.5201,0.6466,0.1985,0.5214,4.53,8.6,0.84,0,-0.1,0
525787,0,0,1,-22.1704,-15.293,-10.0854,-3.208,0.022,0.0146,-23.7085,-17.7759,0.0742,9.9359,0.0239,0.4883,-1.4648,-0.3052,0.0742,9.9359,0.0239,0.4883,-1.4648,-0.3052,-8.4948,1.3711,4.0314,-0.0512,-0.1179,0.0803,0.4915,-0.3852,0.375,0.6851,0.5595,0.4119,0.5876,-0.4146,-9.79,-0.39,-0.38,0,0,0,0.416,0.6139,0.464,0.4842,2.16,9.34,-1.68,0,0,0,0.2925,0.5475,0.4983,0.6051,4.14,8.86,-0.76,0,0,0,-0.5044,-0.49,-0.513,0.492,-9.74,-0.17,0.06,0,0,0,-0.4292,-0.5711,0.4441,0.5406,-2.42,9.49,-0.53,0,0,0,0.5201,0.6467,0.1984,0.5213,4.57,8.59,0.85,0,-0.1,0
525788,0,0,1,-22.1704,-15.293,-10.0854,-3.208,0.0165,-0.0055,-23.7085,-17.7759,0.091,10.0149,-0.0263,0.3052,-1.8005,-0.0305,0.091,10.0149,-0.0263,0.3052,-1.8005,-0.0305,-8.4948,1.3711,4.0314,-0.0512,-0.1179,0.0803,0.4915,-0.3852,0.375,0.6851,0.5594,0.4119,0.5876,-0.4146,-9.79,-0.4,-0.38,0,0,0,0.416,0.614,0.464,0.4842,2.08,9.35,-1.68,0,0,0,0.2925,0.5475,0.4983,0.6051,4.15,8.89,-0.77,0,0,0,-0.5044,-0.49,-0.513,0.4921,-9.74,-0.15,0.07,0,0,0,-0.4291,-0.5711,0.4441,0.5406,-2.44,9.49,-0.54,0,0,0,0.5201,0.6467,0.1984,0.5213,4.57,8.59,0.85,0,-0.1,0
525789,0,0,1,-22.1704,-15.293,-10.0854,-3.208,0,0.0037,-23.7085,-17.7759,0.0622,9.8857,-0.0599,0.2136,-1.4954,-0.1526,0.0622,9.8857,-0.0599,0.2136,-1.4954,-0.1526,-8.6378,1.4034,4.0527,-0.0575,-0.1395,0.0871,0.4914,-0.385,0.3748,0.6854,0.5594,0.4119,0.5876,-0.4146,-9.79,-0.41,-0.42,0,0,0,0.416,0.614,0.4641,0.4842,2.05,9.36,-1.67,0,0,0,0.2925,0.5475,0.4983,0.6052,4.19,8.88,-0.77,0,0,0,-0.5044,-0.49,-0.5129,0.4921,-9.74,-0.16,0.1,0,0,0,-0.4291,-0.5711,0.4441,0.5406,-2.47,9.51,-0.54,0,0,0,0.5201,0.6468,0.1984,0.5212,4.56,8.59,0.83,0,-0.1,0
525790,0,0,1,-22.1704,-15.293,-10.0854,-3.208,-0.0018,0.0092,-23.7085,-17.7759,0.0622,9.9024,-0.0694,0.4578,-1.6174,-0.1221,0.0622,9.9024,-0.0694,0.4578,-1.6174,-0.1221,-8.6378,1.4034,4.0527,-0.0575,-0.1395,0.0871,0.4914,-0.385,0.3748,0.6854,0.5594,0.4119,0.5876,-0.4146,-9.77,-0.4,-0.46,0,0,0,0.4161,0.614,0.4641,0.4841,2.02,9.34,-1.69,0,0,0,0.2924,0.5476,0.4982,0.6052,4.17,8.84,-0.76,0,0,0,-0.5044,-0.49,-0.5129,0.4922,-9.78,-0.15,0.11,0,0,0,-0.4291,-0.5711,0.4441,0.5406,-2.47,9.51,-0.54,0,0,0,0.5201,0.6469,0.1983,0.5211,4.56,8.59,0.84,0,-0.1,0
525791,0,0,1,-22.1704,-15.271,-10.0854,-3.186,-0.0037,0.0146,-23.7085,-17.7759,0.0622,9.9311,-0.0431,0.061,-1.8616,-0.3052,0.0622,9.9311,-0.0431,0.061,-1.8616,-0.3052,-8.6378,1.4034,4.0527,-0.0575,-0.1395,0.0871,0.4914,-0.385,0.3748,0.6854,0.5594,0.4119,0.5876,-0.4146,-9.79,-0.39,-0.46,0,0,0,0.4161,0.614,0.4641,0.4841,2.02,9.34,-1.69,0,0,0,0.2924,0.5476,0.4982,0.6052,4.17,8.84,-0.76,0,0,0,-0.5043,-0.49,-0.5129,0.4922,-9.8,-0.16,0.12,0,0,0,-0.4291,-0.5711,0.4442,0.5406,-2.48,9.52,-0.55,0,0,0,0.5202,0.6469,0.1983,0.521,4.56,8.62,0.82,0,-0.1,0
525792,0,0,1,-22.1704,-15.271,-10.0854,-3.186,-0.0037,-0.0201,-23.7085,-17.7759,0.0814,9.8426,-0.0311,0.1526,-1.6174,0.2136,0.0814,9.8426,-0.0311,0.1526,-1.6174,0.2136,-8.684,1.4398,4.0757,-0.047,-0.1524,0.087,0.4913,-0.3847,0.3746,0.6857,0.5594,0.4119,0.5876,-0.4146,-9.79,-0.39,-0.46,0,0,0,0.4161,0.614,0.4641,0.4841,1.99,9.35,-1.69,0,0,0,0.2925,0.5476,0.4981,0.6052,4.05,8.89,-0.77,0,0,0,-0.5043,-0.49,-0.5129,0.4922,-9.8,-0.16,0.12,0,0,0,-0.4291,-0.571,0.4442,0.5406,-2.51,9.52,-0.55,0,0,0,0.5202,0.647,0.1982,0.5208,4.54,8.59,0.82,0,-0.1,0
525793,0,0,1,-22.1704,-15.271,-10.0854,-3.186,-0.0165,-0.0183,-23.7085,-17.7759,0.0407,9.8258,-0.0622,0.061,-1.709,-0.2136,0.0407,9.8258,-0.0622,0.061,-1.709,-0.2136,-8.684,1.4398,4.0757,-0.047,-0.1524,0.087,0.4913,-0.3847,0.3746,0.6857,0.5594,0.4119,0.5876,-0.4146,-9.78,-0.36,-0.46,0,0,0,0.4162,0.614,0.4641,0.484,1.95,9.34,-1.7,0,0,0,0.2925,0.5477,0.498,0.6052,3.95,8.96,-0.76,0,0,0,-0.5043,-0.49,-0.5129,0.4922,-9.8,-0.16,0.12,0,0,0,-0.4291,-0.571,0.4443,0.5406,-2.51,9.51,-0.56,0,0,0,0.5202,0.647,0.1982,0.5208,4.54,8.59,0.82,0,-0.1,0
525794,0,0,1,-22.1704,-15.271,-10.0854,-3.186,0.0146,0.0238,-23.7085,-17.7759,0.0503,9.7588,-0.0694,0,-1.77,-0.0305,0.0503,9.7588,-0.0694,0,-1.77,-0.0305,-8.7554,1.4474,4.049,-0.0223,-0.1683,0.0856,0.4913,-0.3844,0.3745,0.686,0.5594,0.4119,0.5877,-0.4146,-9.77,-0.37,-0.48,0,0,0,0.4162,0.614,0.4641,0.484,1.91,9.4,-1.69,0,0,0,0.2925,0.5478,0.4979,0.6052,3.91,9.04,-0.7,0,0,0,-0.5043,-0.49,-0.5129,0.4923,-9.83,-0.15,0.06,0,0,0,-0.429,-0.571,0.4443,0.5406,-2.51,9.5,-0.55,0,0,0,0.5202,0.6472,0.1982,0.5207,4.57,8.59,0.8,0,-0.1,0
525795,0,0,1,-22.1704,-15.271,-10.0854,-3.186,0.0037,0.0146,-23.7085,-17.7759,0.0479,9.754,-0.0838,-0.0305,-1.7395,-0.1526,0.0479,9.754,-0.0838,-0.0305,-1.7395,-0.1526,-8.7554,1.4474,4.049,-0.0223,-0.1683,0.0856,0.4913,-0.3844,0.3745,0.686,0.5594,0.4119,0.5877,-0.4146,-9.74,-0.34,-0.45,0,0,0,0.4163,0.6139,0.4641,0.484,1.87,9.39,-1.7,0,0,0,0.2925,0.5479,0.4977,0.6053,3.85,9.05,-0.68,0,0,0,-0.5043,-0.49,-0.5128,0.4924,-9.85,-0.17,0.02,0,0,0,-0.429,-0.571,0.4443,0.5406,-2.51,9.5,-0.55,0,0,0,0.5203,0.6473,0.1981,0.5205,4.6,8.62,0.76,0,-0.1,0
525796,0,0,1,-22.1704,-15.271,-10.0854,-3.186,-0.0146,-0.0037,-23.7085,-17.7759,0.0263,9.8761,-0.0886,0,-1.6785,-0.1831,0.0263,9.8761,-0.0886,0,-1.6785,-0.1831,-8.7554,1.4474,4.049,-0.0223,-0.1683,0.0856,0.4913,-0.3844,0.3745,0.686,0.5594,0.4119,0.5877,-0.4146,-9.73,-0.33,-0.43,0,0,0,0.4163,0.6139,0.4641,0.484,1.87,9.39,-1.7,0,0,0,0.2925,0.5479,0.4977,0.6053,3.85,9.05,-0.68,0,0,0,-0.5043,-0.49,-0.5128,0.4924,-9.85,-0.15,0.02,0,0,0,-0.429,-0.571,0.4443,0.5407,-2.5,9.51,-0.53,0,0,0,0.5203,0.6474,0.1981,0.5204,4.62,8.6,0.7,0,-0.1,0
525797,0,0,1,-22.1924,-15.293,-10.0854,-3.186,-0.0018,0.0128,-23.7085,-17.7759,0.012,9.7444,-0.0982,-0.2136,-1.6479,-0.3052,0.012,9.7444,-0.0982,-0.2136,-1.6479,-0.3052,-8.8146,1.438,4.0245,-0.0288,-0.1854,0.09,0.4913,-0.384,0.3743,0.6863,0.5594,0.4119,0.5877,-0.4146,-9.73,-0.33,-0.43,0,0,0,0.4163,0.6139,0.4641,0.4839,1.82,9.43,-1.71,0,0,0,0.2926,0.548,0.4976,0.6053,3.77,9.08,-0.7,0,0,0,-0.5043,-0.49,-0.5128,0.4924,-9.85,-0.15,0.02,0,0,0,-0.429,-0.5709,0.4444,0.5407,-2.49,9.5,-0.52,0,0,0,0.5204,0.6475,0.198,0.5202,4.65,8.58,0.7,0,-0.1,0
525798,0,0,1,-22.1924,-15.293,-10.0854,-3.186,-0.0092,-0.0165,-23.7085,-17.7759,-0.0144,9.7683,-0.1149,0,-1.4648,-0.0916,-0.0144,9.7683,-0.1149,0,-1.4648,-0.0916,-8.8146,1.438,4.0245,-0.0288,-0.1854,0.09,0.4913,-0.384,0.3743,0.6863,0.5594,0.4119,0.5877,-0.4146,-9.73,-0.33,-0.45,0,0,0,0.4164,0.6139,0.4641,0.4839,1.75,9.43,-1.71,0,0,0,0.2926,0.5481,0.4974,0.6053,3.72,9.04,-0.74,0,-0.1,0,-0.5042,-0.4899,-0.5128,0.4925,-9.85,-0.13,0,0,0,0,-0.429,-0.5709,0.4444,0.5407,-2.51,9.5,-0.52,0,0,0,0.5204,0.6475,0.198,0.5202,4.65,8.58,0.7,0,-0.1,0
525799,0,0,1,-22.1704,-15.293,-10.0635,-3.186,-0.0165,0.0128,-23.7085,-17.7759,-0.0024,9.7061,-0.1269,-0.2441,-1.5259,-0.3357,-0.0024,9.7061,-0.1269,-0.2441,-1.5259,-0.3357,-8.8146,1.438,4.0245,-0.0288,-0.1854,0.09,0.4913,-0.384,0.3743,0.6863,0.5594,0.4119,0.5877,-0.4146,-9.71,-0.3,-0.44,0,0,0,0.4165,0.6139,0.4641,0.4838,1.68,9.45,-1.72,0,0,0,0.2927,0.5482,0.4973,0.6053,3.7,9.02,-0.74,0,-0.1,0.1,-0.5042,-0.4899,-0.5128,0.4926,-9.87,-0.12,-0.03,0,0,0,-0.429,-0.5709,0.4444,0.5407,-2.49,9.5,-0.53,0,0,0,0.5204,0.6476,0.1979,0.5201,4.69,8.56,0.72,0,-0.1,0
525800,0,0,1,-22.1704,-15.293,-10.0635,-3.186,0.0165,0.0476,-23.7085,-17.7759,-0.0192,9.7157,-0.1149,-0.0916,-1.5564,-0.3357,-0.0192,9.7157,-0.1149,-0.0916,-1.5564,-0.3357,-8.886,1.4302,4.0229,-0.0395,-0.1923,0.097,0.4913,-0.3837,0.3741,0.6867,0.5593,0.4119,0.5877,-0.4146,-9.69,-0.26,-0.38,0,0,0,0.4165,0.6139,0.4641,0.4838,1.6,9.46,-1.75,0,0,0,0.2927,0.5484,0.4971,0.6052,3.67,9.02,-0.74,0,-0.1,0.1,-0.5042,-0.4899,-0.5127,0.4926,-9.85,-0.11,-0.06,0,0,0,-0.429,-0.5709,0.4444,0.5407,-2.49,9.5,-0.53,0,0,0,0.5205,0.6476,0.1979,0.5199,4.75,8.53,0.72,0,-0.1,0
525801,0,0,1,-22.1704,-15.293,-10.0635,-3.186,-0.0128,-0.0201,-23.7085,-17.7759,-0.0599,9.6822,-0.0838,-0.061,-1.5564,-0.4883,-0.0599,9.6822,-0.0838,-0.061,-1.5564,-0.4883,-8.886,1.4302,4.0229,-0.0395,-0.1923,0.097,0.4913,-0.3837,0.3741,0.6867,0.5593,0.4119,0.5877,-0.4146,-9.69,-0.26,-0.39,0,0,0,0.4165,0.6139,0.4641,0.4838,1.6,9.46,-1.75,0,0,0,0.2927,0.5484,0.4971,0.6052,3.67,9.02,-0.74,0,-0.1,0.1,-0.5042,-0.4899,-0.5127,0.4927,-9.86,-0.09,-0.09,0,0,0,-0.429,-0.5709,0.4444,0.5407,-2.49,9.5,-0.53,0,0,0,0.5205,0.6477,0.1978,0.5198,4.73,8.52,0.6,0,-0.1,0
525802,0,0,1,-22.1704,-15.293,-10.0635,-3.186,-0.011,-0.0183,-23.7085,-17.7759,-0.0239,9.7636,-0.0862,-0.2441,-1.4648,-0.4578,-0.0239,9.7636,-0.0862,-0.2441,-1.4648,-0.4578,-8.9747,1.4023,3.9328,-0.0474,-0.1913,0.1011,0.4913,-0.3833,0.3738,0.687,0.5593,0.4119,0.5877,-0.4146,-9.69,-0.26,-0.39,0,0,0,0.4166,0.6138,0.4642,0.4838,1.57,9.46,-1.74,0,0,0,0.2928,0.5485,0.4969,0.6052,3.57,9.05,-0.81,0,-0.1,0.1,-0.5042,-0.4899,-0.5127,0.4927,-9.86,-0.09,-0.09,0,0,0,-0.4289,-0.5708,0.4444,0.5408,-2.47,9.46,-0.53,0,0,0,0.5206,0.6478,0.1978,0.5197,4.77,8.54,0.6,0,-0.1,0
525803,0,0,1,-22.1704,-15.293,-10.0635,-3.186,0.0092,-0.0146,-23.7085,-17.7759,-0.0215,9.6343,-0.1269,-0.3662,-1.2817,-0.6714,-0.0215,9.6343,-0.1269,-0.3662,-1.2817,-0.6714,-8.9747,1.4023,3.9328,-0.0474,-0.1913,0.1011,0.4913,-0.3833,0.3738,0.687,0.5593,0.4119,0.5877,-0.4146,-9.68,-0.25,-0.38,0,0,0,0.4166,0.6138,0.4642,0.4837,1.55,9.45,-1.77,0,0,0,0.2928,0.5487,0.4967,0.6052,3.5,9.07,-0.81,0,-0.1,0.1,-0.5042,-0.4899,-0.5126,0.4928,-9.9,-0.09,-0.13,0,0,0,-0.4289,-0.5708,0.4444,0.5408,-2.48,9.49,-0.53,0,0,0,0.5206,0.6478,0.1978,0.5197,4.77,8.54,0.6,0,-0.1,0
525804,0,0,1,-22.1704,-15.293,-10.0635,-3.186,0.0165,0.0055,-23.7085,-17.7759,0.0048,9.7396,-0.1221,-0.1526,-1.4343,-0.6409,0.0048,9.7396,-0.1221,-0.1526,-1.4343,-0.6409,-8.9747,1.4023,3.9328,-0.0474,-0.1913,0.1011,0.4913,-0.3833,0.3738,0.687,0.5593,0.4119,0.5877,-0.4146,-9.68,-0.25,-0.36,0,0,0,0.4167,0.6137,0.4642,0.4837,1.52,9.44,-1.77,0,0,0,0.2929,0.5489,0.4964,0.6052,3.48,9.1,-0.75,0,-0.1,0.1,-0.5041,-0.4899,-0.5126,0.4929,-9.88,-0.08,-0.15,0,0,0,-0.4289,-0.5708,0.4444,0.5408,-2.46,9.51,-0.51,0,0,0,0.5206,0.6478,0.1977,0.5196,4.84,8.54,0.67,0,-0.1,0
525805,0,0,1,-22.1704,-15.293,-10.0635,-3.186,-0.0092,0,-23.7085,-17.7759,-0.0383,9.6534,-0.0694,-0.4272,-1.3733,-0.6714,-0.0383,9.6534,-0.0694,-0.4272,-1.3733,-0.6714,-8.9712,1.3231,3.9572,-0.0572,-0.167,0.1008,0.4912,-0.383,0.3736,0.6874,0.5593,0.4119,0.5877,-0.4146,-9.68,-0.24,-0.35,0,0,0,0.4167,0.6137,0.4643,0.4837,1.47,9.47,-1.77,0,0,0,0.293,0.549,0.4962,0.6052,3.44,9.1,-0.74,0,-0.1,0.1,-0.5041,-0.4899,-0.5125,0.493,-9.93,-0.06,-0.18,0,0,0,-0.4289,-0.5708,0.4444,0.5408,-2.46,9.51,-0.51,0,0,0,0.5206,0.6479,0.1977,0.5195,4.74,8.54,0.58,0,0,0
525806,0,0,1,-22.1704,-15.293,-10.0635,-3.186,-0.0073,-0.0146,-23.7085,-17.7759,-0.0287,9.6869,-0.0934,-0.1221,-1.0376,-0.6409,-0.0287,9.6869,-0.0934,-0.1221,-1.0376,-0.6409,-8.9712,1.3231,3.9572,-0.0572,-0.167,0.1008,0.4912,-0.383,0.3736,0.6874,0.5593,0.4119,0.5877,-0.4146,-9.7,-0.23,-0.34,0,0,0,0.4167,0.6137,0.4643,0.4837,1.47,9.47,-1.77,0,0,0,0.293,0.549,0.4962,0.6052,3.44,9.1,-0.74,0,-0.1,0.1,-0.5041,-0.4899,-0.5125,0.4931,-9.92,-0.06,-0.19,0,0,0,-0.4289,-0.5708,0.4444,0.5408,-2.46,9.51,-0.51,0,0,0,0.5207,0.648,0.1977,0.5194,4.7,8.6,0.52,0,0,0
525807,0,0,1,-22.1704,-15.293,-10.0635,-3.186,-0.0073,0.0092,-23.7085,-17.7759,0,9.7636,-0.0431,-0.3052,-1.2207,-0.6409,0,9.7636,-0.0431,-0.3052,-1.2207,-0.6409,-8.9129,1.3107,4.0209,-0.0598,-0.1447,0.0996,0.4911,-0.3827,0.3734,0.6877,0.5593,0.4119,0.5877,-0.4146,-9.7,-0.23,-0.34,0,0,0,0.4168,0.6136,0.4643,0.4837,1.43,9.51,-1.75,0,0,0,0.293,0.5492,0.496,0.6052,3.41,9.13,-0.75,0,-0.1,0.1,-0.504,-0.4899,-0.5124,0.4931,-9.91,-0.04,-0.16,0,0,0,-0.4289,-0.5708,0.4444,0.5409,-2.45,9.51,-0.48,0,0,0,0.5207,0.648,0.1977,0.5194,4.7,8.6,0.52,0,0,0
525808,0,0,1,-22.1704,-15.293,-10.0635,-3.186,-0.0128,-0.0092,-23.7085,-17.7759,-0.0766,9.6343,-0.1173,-0.3357,-1.2207,-0.6104,-0.0766,9.6343,-0.1173,-0.3357,-1.2207,-0.6104,-8.9129,1.3107,4.0209,-0.0598,-0.1447,0.0996,0.4911,-0.3827,0.3734,0.6877,0.5593,0.4119,0.5877,-0.4147,-9.68,-0.25,-0.32,0,0,0,0.4168,0.6135,0.4644,0.4838,1.43,9.52,-1.75,0,0,0,0.2931,0.5494,0.4958,0.6052,3.38,9.14,-0.72,-0.1,-0.1,0.1,-0.504,-0.4899,-0.5124,0.4931,-9.91,-0.04,-0.16,0,0,0,-0.4289,-0.5707,0.4444,0.5409,-2.43,9.52,-0.44,0,0,0,0.5207,0.648,0.1977,0.5193,4.73,8.66,0.57,0,0,0
525809,0,0,1,-22.1704,-15.293,-10.0635,-3.186,0.0037,-0.0092,-23.7085,-17.7759,0.0096,9.6869,-0.0982,-0.4272,-0.946,-0.9155,0.0096,9.6869,-0.0982,-0.4272,-0.946,-0.9155,-8.9129,1.3107,4.0209,-0.0598,-0.1447,0.0996,0.4911,-0.3827,0.3734,0.6877,0.5593,0.4119,0.5877,-0.4147,-9.68,-0.25,-0.31,0,0,0,0.4168,0.6134,0.4645,0.4838,1.48,9.5,-1.75,0,0,0,0.2932,0.5496,0.4955,0.6052,3.36,9.13,-0.72,-0.1,-0.1,0.1,-0.504,-0.4899,-0.5124,0.4932,-9.88,-0.03,-0.16,0,0,0,-0.4289,-0.5707,0.4444,0.5409,-2.43,9.52,-0.44,0,0,0,0.5207,0.6481,0.1976,0.5193,4.66,8.66,0.64,0,0,0
525810,0,0,1,-22.1704,-15.293,-10.0635,-3.186,-0.0073,-0.0073,-23.7085,-17.7759,0.0239,9.8114,-0.1173,-0.1526,-0.946,-0.7324,0.0239,9.8114,-0.1173,-0.1526,-0.946,-0.7324,-8.7536,1.3048,4.1003,-0.061,-0.1314,0.0946,0.491,-0.3825,0.3732,0.688,0.5592,0.4119,0.5877,-0.4147,-9.68,-0.23,-0.32,0,0,0,0.4168,0.6133,0.4646,0.4838,1.49,9.55,-1.73,0,0.1,0,0.2932,0.5497,0.4953,0.6052,3.41,9.1,-0.72,-0.1,-0.1,0.1,-0.504,-0.4899,-0.5123,0.4933,-9.87,-0.03,-0.18,0,0,0,-0.4289,-0.5707,0.4444,0.5409,-2.38,9.56,-0.4,0,0,0,0.5207,0.6481,0.1976,0.5192,4.64,8.64,0.63,0,0,0
525811,0,0,1,-22.1704,-15.293,-10.0635,-3.186,0.0055,-0.0183,-23.7085,-17.7759,-0.0335,9.7252,-0.0838,-0.5798,-1.0681,-1.0986,-0.0335,9.7252,-0.0838,-0.5798,-1.0681,-1.0986,-8.7536,1.3048,4.1003,-0.061,-0.1314,0.0946,0.491,-0.3825,0.3732,0.688,0.5592,0.4119,0.5877,-0.4147,-9.69,-0.26,-0.3,0,0,0,0.4168,0.6133,0.4646,0.4838,1.49,9.55,-1.73,0,0.1,0,0.2932,0.5497,0.4953,0.6052,3.41,9.1,-0.72,-0.1,-0.1,0.1,-0.5039,-0.4899,-0.5123,0.4934,-9.83,-0.06,-0.17,0,0,0,-0.4289,-0.5707,0.4444,0.5409,-2.38,9.56,-0.4,0,0,0,0.5208,0.6482,0.1976,0.5191,4.71,8.63,0.59,0,0,0
525812,0,0,1,-22.1704,-15.293,-10.0635,-3.186,-0.0165,0.0146,-23.7085,-17.7759,0.0144,9.7636,-0.0622,-0.4883,-0.885,-0.8545,0.0144,9.7636,-0.0622,-0.4883,-0.885,-0.8545,-8.5938,1.231,4.1752,-0.0528,-0.1506,0.0849,0.4909,-0.3822,0.3731,0.6883,0.5592,0.4119,0.5877,-0.4147,-9.69,-0.26,-0.3,0,0,0,0.4167,0.6132,0.4648,0.4839,1.53,9.53,-1.76,0,0.1,0,0.2933,0.5499,0.495,0.6052,3.4,9.08,-0.79,-0.1,-0.1,0.1,-0.5039,-0.4899,-0.5123,0.4934,-9.83,-0.06,-0.17,0,0,0,-0.4289,-0.5707,0.4444,0.541,-2.32,9.55,-0.36,0,0,0,0.5208,0.6482,0.1975,0.519,4.71,8.6,0.58,0,0,0
525813,0,0,1,-22.1704,-15.293,-10.0635,-3.186,-0.0165,-0.011,-23.7085,-17.7759,-0.0335,9.7875,-0.0096,-0.4272,-0.6409,-0.946,-0.0335,9.7875,-0.0096,-0.4272,-0.6409,-0.946,-8.5938,1.231,4.1752,-0.0528,-0.1506,0.0849,0.4909,-0.3822,0.3731,0.6883,0.5592,0.4119,0.5877,-0.4147,-9.7,-0.28,-0.32,0,0,0,0.4167,0.613,0.4649,0.4839,1.56,9.51,-1.82,0,0.1,0,0.2934,0.5501,0.4947,0.6052,3.36,9.04,-0.85,-0.1,-0.2,0.1,-0.5039,-0.4899,-0.5122,0.4935,-9.81,-0.08,-0.18,0,0,0,-0.4289,-0.5707,0.4444,0.541,-2.27,9.52,-0.33,0,0,0,0.5208,0.6482,0.1975,0.519,4.71,8.6,0.58,0,0,0
525814,0,0,1,-22.1704,-15.293,-10.0635,-3.186,-0.0055,-0.0201,-23.7085,-17.7759,0.0383,9.8234,-0.067,-0.5493,-0.8545,-0.8545,0.0383,9.8234,-0.067,-0.5493,-0.8545,-0.8545,-8.5938,1.231,4.1752,-0.0528,-0.1506,0.0849,0.4909,-0.3822,0.3731,0.6883,0.5592,0.4119,0.5877,-0.4148,-9.73,-0.29,-0.32,0,0,0,0.4166,0.6129,0.4651,0.484,1.6,9.46,-1.93,0,0.1,0,0.2935,0.5504,0.4945,0.6052,3.39,9.04,-0.88,-0.1,-0.2,0.1,-0.5038,-0.4899,-0.5122,0.4936,-9.82,-0.11,-0.19,0,0,0,-0.4289,-0.5707,0.4444,0.541,-2.25,9.52,-0.3,0,0,0,0.5209,0.6482,0.1975,0.5189,4.73,8.6,0.53,0,0,0
525815,0,0,1,-22.1704,-15.293,-10.0635,-3.186,0.0092,-0.0165,-23.7085,-17.7759,0.0048,9.809,-0.0479,-0.4883,-0.824,-0.9766,0.0048,9.809,-0.0479,-0.4883,-0.824,-0.9766,-8.5279,1.2462,4.1654,-0.0549,-0.1716,0.0801,0.4909,-0.3819,0.3728,0.6886,0.5592,0.4119,0.5877,-0.4148,-9.73,-0.32,-0.34,0,0,0,0.4165,0.6128,0.4653,0.4841,1.66,9.42,-2,0,0.1,0,0.2936,0.5505,0.4942,0.6052,3.41,9.07,-0.89,-0.1,-0.2,0.1,-0.5038,-0.4899,-0.5121,0.4937,-9.8,-0.13,-0.2,0,0,0,-0.4289,-0.5707,0.4443,0.5411,-2.2,9.5,-0.29,0,0,0,0.5209,0.6483,0.1975,0.5189,4.76,8.62,0.55,0,0,0
525816,0,0,1,-22.1704,-15.293,-10.0635,-3.186,-0.0037,-0.0256,-23.7085,-17.7759,0.0144,9.7827,-0.0503,-0.5493,-0.7324,-0.7629,0.0144,9.7827,-0.0503,-0.5493,-0.7324,-0.7629,-8.5279,1.2462,4.1654,-0.0549,-0.1716,0.0801,0.4909,-0.3819,0.3728,0.6886,0.5592,0.4119,0.5877,-0.4148,-9.74,-0.3,-0.34,0,0,0,0.4165,0.6128,0.4653,0.4841,1.66,9.42,-2,0,0.1,0,0.2936,0.5505,0.4942,0.6052,3.41,9.07,-0.89,-0.1,-0.2,0.1,-0.5037,-0.49,-0.5121,0.4937,-9.81,-0.13,-0.22,0.1,0,0,-0.4289,-0.5707,0.4443,0.5411,-2.2,9.5,-0.29,0,0,0,0.5209,0.6483,0.1975,0.5189,4.73,8.62,0.56,0,0,0
525817,0,0,1,-22.1704,-15.293,-10.0635,-3.186,0.0018,-0.0092,-23.7085,-17.7759,0.0575,9.8545,0.0263,-0.5188,-0.946,-0.885,0.0575,9.8545,0.0263,-0.5188,-0.946,-0.885,-8.5073,1.2395,4.1605,-0.0718,-0.1974,0.0755,0.4909,-0.3816,0.3725,0.6889,0.5592,0.4119,0.5877,-0.4148,-9.74,-0.3,-0.34,0,0,0,0.4165,0.6126,0.4655,0.4842,1.73,9.4,-2.05,0,0.2,0,0.2937,0.5508,0.494,0.6051,3.43,9.09,-0.89,-0.1,-0.2,0.1,-0.5037,-0.49,-0.5121,0.4937,-9.81,-0.13,-0.22,0.1,0,0,-0.4289,-0.5706,0.4443,0.5411,-2.16,9.49,-0.24,0,0,0,0.5209,0.6483,0.1975,0.5188,4.68,8.64,0.59,0,0,0
525818,0,0,1,-22.1704,-15.293,-10.0635,-3.186,0.0092,-0.0146,-23.7085,-17.7759,-0.0072,9.8282,-0.0694,-0.6409,-0.824,-0.9766,-0.0072,9.8282,-0.0694,-0.6409,-0.824,-0.9766,-8.5073,1.2395,4.1605,-0.0718,-0.1974,0.0755,0.4909,-0.3816,0.3725,0.6889,0.5592,0.4119,0.5877,-0.4148,-9.74,-0.33,-0.34,0,0,0,0.4164,0.6124,0.4657,0.4843,1.8,9.35,-2.08,0,0.2,0,0.2938,0.551,0.4937,0.6051,3.46,9.11,-0.89,0,-0.2,0.1,-0.5037,-0.49,-0.512,0.4938,-9.8,-0.17,-0.21,0.1,0,0,-0.4289,-0.5706,0.4443,0.5411,-2.14,9.47,-0.22,0,0,0,0.5209,0.6483,0.1975,0.5188,4.68,8.64,0.59,0,0,0
525819,0,0,1,-22.1704,-15.293,-10.0635,-3.186,-0.0018,0,-23.7085,-17.7759,0.0527,9.8785,-0.0335,-0.4578,-0.7324,-0.9766,0.0527,9.8785,-0.0335,-0.4578,-0.7324,-0.9766,-8.5073,1.2395,4.1605,-0.0718,-0.1974,0.0755,0.4909,-0.3816,0.3725,0.6889,0.5591,0.4119,0.5877,-0.4149,-9.75,-0.36,-0.34,0,0,0,0.4163,0.6122,0.4659,0.4844,1.93,9.34,-2.07,0,0.2,0,0.2939,0.5512,0.4935,0.605,3.5,9.08,-0.86,0,-0.2,0.1,-0.5036,-0.49,-0.5119,0.4939,-9.79,-0.17,-0.21,0.1,0,0,-0.4289,-0.5706,0.4443,0.5412,-2.13,9.47,-0.21,0,0,0,0.5209,0.6483,0.1975,0.5188,4.68,8.65,0.62,0,0,0
525820,0,0,1,-22.1704,-15.293,-10.0635,-3.186,-0.0092,-0.011,-23.7085,-17.7759,0.0407,9.8904,0.0168,-0.6104,-0.9155,-0.9155,0.0407,9.8904,0.0168,-0.6104,-0.9155,-0.9155,-8.5011,1.3177,4.2171,-0.0783,-0.2198,0.0767,0.4909,-0.3813,0.3722,0.6893,0.5591,0.4119,0.5877,-0.4149,-9.74,-0.36,-0.38,0,0,0,0.4162,0.612,0.4661,0.4846,2.05,9.34,-2,0,0.2,0,0.294,0.5514,0.4933,0.605,3.54,9.06,-0.85,0,-0.2,0.1,-0.5035,-0.4901,-0.5119,0.494,-9.8,-0.18,-0.2,0.1,0,0,-0.4289,-0.5706,0.4443,0.5412,-2.13,9.47,-0.21,0,0,0,0.5209,0.6483,0.1975,0.5188,4.65,8.63,0.61,0,0,0
525821,0,0,1,-22.1704,-15.293,-10.0635,-3.186,0.0146,-0.0146,-23.7085,-17.7759,0.0215,9.9407,-0.0527,-0.824,-0.9766,-0.7324,0.0215,9.9407,-0.0527,-0.824,-0.9766,-0.7324,-8.5011,1.3177,4.2171,-0.0783,-0.2198,0.0767,0.4909,-0.3813,0.3722,0.6893,0.5591,0.4119,0.5877,-0.4149,-9.74,-0.37,-0.38,0,0,0,0.4162,0.612,0.4661,0.4846,2.05,9.34,-2,0,0.2,0,0.294,0.5514,0.4933,0.605,3.54,9.06,-0.85,0,-0.2,0.1,-0.5035,-0.4901,-0.5118,0.4941,-9.8,-0.2,-0.23,0.1,0,0,-0.4289,-0.5705,0.4443,0.5412,-2.13,9.48,-0.23,0,0,0,0.5209,0.6483,0.1975,0.5188,4.62,8.6,0.61,0,0,0
525822,0,0,1,-22.1704,-15.293,-10.0635,-3.186,-0.0073,0.0128,-23.7085,-17.7759,0.0024,9.8138,-0.0096,-0.5798,-0.946,-0.7019,0.0024,9.8138,-0.0096,-0.5798,-0.946,-0.7019,-8.5437,1.3629,4.2326,-0.0829,-0.2461,0.0764,0.4909,-0.3809,0.3718,0.6897,0.5591,0.4119,0.5877,-0.4149,-9.74,-0.37,-0.38,0,0,0,0.4161,0.6118,0.4663,0.4847,2.13,9.37,-1.93,0,0.2,0,0.2942,0.5516,0.493,0.6049,3.55,9.03,-0.84,0,-0.2,0.1,-0.5035,-0.4901,-0.5118,0.4941,-9.8,-0.2,-0.23,0.1,0,0,-0.4289,-0.5705,0.4443,0.5413,-2.17,9.5,-0.23,0,0,0,0.5209,0.6483,0.1975,0.5188,4.62,8.58,0.61,0,0,0
525823,0,0,1,-22.1704,-15.293,-10.0635,-3.186,0.0092,-0.022,-23.7085,-17.7759,0.0287,9.8713,-0.0503,-0.7324,-0.824,-0.5798,0.0287,9.8713,-0.0503,-0.7324,-0.824,-0.5798,-8.5437,1.3629,4.2326,-0.0829,-0.2461,0.0764,0.4909,-0.3809,0.3718,0.6897,0.5591,0.4119,0.5877,-0.4149,-9.74,-0.38,-0.39,0,0,0,0.416,0.6116,0.4665,0.4849,2.25,9.35,-1.85,0,0.2,0,0.2943,0.5518,0.4928,0.6048,3.57,9.01,-0.86,0,-0.2,0.1,-0.5034,-0.4902,-0.5117,0.4943,-9.8,-0.22,-0.26,0.1,0,0,-0.4289,-0.5705,0.4443,0.5413,-2.16,9.49,-0.24,0,0,0,0.5209,0.6483,0.1975,0.5188,4.62,8.58,0.61,0,0,0
525824,0,0,1,-22.1704,-15.293,-10.0635,-3.186,-0.0092,0.0092,-23.7085,-17.7759,0.0239,9.8402,-0.0192,-0.7324,-1.0376,-1.0681,0.0239,9.8402,-0.0192,-0.7324,-1.0376,-1.0681,-8.5437,1.3629,4.2326,-0.0829,-0.2461,0.0764,0.4909,-0.3809,0.3718,0.6897,0.5591,0.4119,0.5877,-0.4149,-9.75,-0.39,-0.38,0,0,0,0.4159,0.6114,0.4667,0.485,2.35,9.32,-1.79,0,0.2,0,0.2944,0.552,0.4926,0.6048,3.6,9.02,-0.85,0,-0.2,0.1,-0.5033,-0.4902,-0.5117,0.4944,-9.82,-0.23,-0.26,0.1,0,0,-0.4289,-0.5704,0.4443,0.5414,-2.22,9.5,-0.28,0,0,0,0.5209,0.6483,0.1975,0.5188,4.61,8.56,0.62,0,0,0
525825,0,0,1,-22.1924,-15.293,-10.0854,-3.186,-0.0165,0.0201,-23.7085,-17.7759,0.079,10.003,0,-0.946,-0.9766,-0.6104,0.079,10.003,0,-0.946,-0.9766,-0.6104,-8.5685,1.4013,4.2492,-0.0863,-0.2669,0.0791,0.4909,-0.3805,0.3714,0.6901,0.5592,0.4118,0.5877,-0.415,-9.78,-0.38,-0.39,0,0,0,0.4158,0.6111,0.4669,0.4852,2.43,9.35,-1.74,0,0.2,0,0.2945,0.5522,0.4924,0.6047,3.66,9.03,-0.85,0,-0.2,0,-0.5032,-0.4902,-0.5116,0.4945,-9.81,-0.24,-0.23,0.1,0,0,-0.4289,-0.5704,0.4443,0.5414,-2.22,9.5,-0.28,0,0,0,0.5209,0.6483,0.1976,0.5188,4.59,8.57,0.64,0,0,0
525826,0,0,1,-22.1924,-15.293,-10.0854,-3.186,-0.0275,-0.0201,-23.7085,-17.7759,0.079,9.8785,-0.0599,-1.0376,-1.0681,-0.6104,0.079,9.8785,-0.0599,-1.0376,-1.0681,-0.6104,-8.5685,1.4013,4.2492,-0.0863,-0.2669,0.0791,0.4909,-0.3805,0.3714,0.6901,0.5592,0.4118,0.5877,-0.415,-9.78,-0.38,-0.39,0,0,0,0.4156,0.6109,0.4671,0.4854,2.52,9.31,-1.69,0,0.2,0,0.2945,0.5522,0.4924,0.6047,3.66,9.03,-0.85,0,-0.2,0,-0.5032,-0.4903,-0.5115,0.4945,-9.79,-0.24,-0.19,0.1,0,0,-0.4288,-0.5704,0.4443,0.5414,-2.24,9.47,-0.34,0,0,0,0.5209,0.6483,0.1976,0.5188,4.59,8.58,0.64,0,0,0
525827,0,0,1,-22.1704,-15.271,-10.0854,-3.186,-0.0092,0.0238,-23.7085,-17.7759,-0.0096,9.7588,-0.0622,-0.6714,-1.0376,-0.7324,-0.0096,9.7588,-0.0622,-0.6714,-1.0376,-0.7324,-8.6148,1.452,4.2863,-0.0901,-0.2742,0.0781,0.4909,-0.3801,0.371,0.6906,0.5592,0.4118,0.5876,-0.415,-9.75,-0.38,-0.41,0,0,0,0.4156,0.6109,0.4671,0.4854,2.52,9.31,-1.69,0,0.2,0,0.2946,0.5524,0.4923,0.6046,3.73,9.04,-0.92,0,-0.2,0,-0.5032,-0.4903,-0.5115,0.4945,-9.79,-0.24,-0.19,0.1,0,0,-0.4288,-0.5704,0.4443,0.5414,-2.24,9.46,-0.36,0,0,0,0.5209,0.6483,0.1976,0.5188,4.59,8.58,0.64,0,0,0
525828,0,0,1,-22.1704,-15.271,-10.0854,-3.186,0.0073,0.0311,-23.7085,-17.7759,0.1341,9.9383,0.0287,-0.824,-1.2207,-0.6409,0.1341,9.9383,0.0287,-0.824,-1.2207,-0.6409,-8.6148,1.452,4.2863,-0.0901,-0.2742,0.0781,0.4909,-0.3801,0.371,0.6906,0.5592,0.4118,0.5876,-0.415,-9.75,-0.38,-0.41,0,0,0,0.4155,0.6107,0.4673,0.4856,2.61,9.32,-1.63,0,0.2,0,0.2947,0.5526,0.4921,0.6045,3.79,9.04,-0.91,0,-0.2,0,-0.5031,-0.4903,-0.5115,0.4946,-9.83,-0.24,-0.15,0,0,0,-0.4288,-0.5703,0.4443,0.5415,-2.27,9.47,-0.39,0,0,0,0.5209,0.6483,0.1976,0.5188,4.55,8.57,0.68,0,0,0
525829,0,0,1,-22.1704,-15.271,-10.0854,-3.186,-0.0183,0.0092,-23.7085,-17.7759,0.0096,9.8306,0.0311,-0.946,-1.1902,-0.5493,0.0096,9.8306,0.0311,-0.946,-1.1902,-0.5493,-8.663,1.4658,4.3212,-0.092,-0.2975,0.0791,0.491,-0.3796,0.3706,0.691,0.5592,0.4118,0.5876,-0.415,-9.78,-0.36,-0.4,0,0,0,0.4154,0.6106,0.4675,0.4857,2.65,9.31,-1.61,0,0.2,0,0.2948,0.5528,0.4919,0.6044,3.84,9.02,-0.94,0,-0.2,0,-0.5031,-0.4903,-0.5114,0.4947,-9.83,-0.27,-0.11,0,0,0,-0.4288,-0.5703,0.4443,0.5415,-2.28,9.46,-0.42,0,0,0,0.5209,0.6483,0.1977,0.5188,4.54,8.55,0.69,0,0,0
525830,0,0,1,-22.1704,-15.271,-10.0854,-3.186,0.0018,0.0073,-23.7085,-17.7759,0.0838,9.8737,-0.0096,-0.7629,-1.0681,-0.3052,0.0838,9.8737,-0.0096,-0.7629,-1.0681,-0.3052,-8.663,1.4658,4.3212,-0.092,-0.2975,0.0791,0.491,-0.3796,0.3706,0.691,0.5592,0.4118,0.5876,-0.415,-9.77,-0.43,-0.43,0,0,0,0.4153,0.6104,0.4677,0.4858,2.72,9.29,-1.6,0,0.2,0,0.2949,0.553,0.4917,0.6043,3.9,8.99,-0.94,0,-0.2,0,-0.503,-0.4903,-0.5114,0.4948,-9.85,-0.28,-0.02,0,0,0,-0.4288,-0.5703,0.4443,0.5415,-2.28,9.46,-0.42,0,0,0,0.5209,0.6483,0.1977,0.5188,4.49,8.54,0.67,0,0,0
525831,0,0,1,-22.1704,-15.271,-10.0854,-3.186,0,0.0018,-23.7085,-17.7759,0.0862,9.8114,0.0239,-1.1292,-1.2817,-0.7019,0.0862,9.8114,0.0239,-1.1292,-1.2817,-0.7019,-8.663,1.4658,4.3212,-0.092,-0.2975,0.0791,0.491,-0.3796,0.3706,0.691,0.5592,0.4117,0.5876,-0.415,-9.79,-0.37,-0.39,0,0,0,0.4153,0.6104,0.4677,0.4858,2.72,9.29,-1.6,0,0.2,0,0.2949,0.553,0.4917,0.6043,3.9,8.99,-0.94,0,-0.2,0,-0.503,-0.4903,-0.5114,0.4949,-9.82,-0.32,0.17,0,0,0,-0.4288,-0.5703,0.4444,0.5415,-2.3,9.43,-0.45,0,0,0,0.5208,0.6482,0.1978,0.5188,4.51,8.54,0.7,0,0,0
525832,0,0,1,-22.1704,-15.271,-10.0854,-3.186,0.0018,0.0037,-23.7085,-17.7759,0.0503,9.809,-0.0455,-0.946,-1.3123,-0.6714,0.0503,9.809,-0.0455,-0.946,-1.3123,-0.6714,-8.6638,1.4995,4.3634,-0.0902,-0.3096,0.0788,0.491,-0.3792,0.3701,0.6915,0.5592,0.4117,0.5876,-0.415,-9.79,-0.37,-0.39,0,0,0,0.4152,0.6103,0.4678,0.4859,2.75,9.28,-1.59,0,0.1,0,0.295,0.5532,0.4915,0.6042,3.91,9,-0.9,0,-0.2,0,-0.503,-0.4903,-0.5114,0.4949,-9.82,-0.32,0.17,0,0,0,-0.4288,-0.5703,0.4444,0.5415,-2.3,9.44,-0.46,0,0,0,0.5208,0.6482,0.1978,0.5188,4.51,8.54,0.7,0,0,0
525833,0,0,1,-22.1704,-15.271,-10.0854,-3.186,-0.0128,0.0055,-23.7085,-17.7759,-0.0024,9.7683,0,-0.946,-1.3123,-0.3052,-0.0024,9.7683,0,-0.946,-1.3123,-0.3052,-8.6638,1.4995,4.3634,-0.0902,-0.3096,0.0788,0.491,-0.3792,0.3701,0.6915,0.5592,0.4117,0.5876,-0.415,-9.76,-0.3,-0.35,0,0,0,0.4152,0.6101,0.4679,0.486,2.74,9.28,-1.59,0,0.1,0,0.2952,0.5535,0.4913,0.6041,3.94,8.99,-0.91,0,-0.2,0,-0.5029,-0.4904,-0.5114,0.4949,-9.79,-0.37,0.41,0,0,0,-0.4288,-0.5703,0.4444,0.5415,-2.28,9.44,-0.46,0,0,0,0.5208,0.6482,0.1979,0.5189,4.48,8.52,0.68,0,0,0
525834,0,0,1,-22.1704,-15.271,-10.0854,-3.186,-0.022,0.0165,-23.7085,-17.7759,0.091,9.8378,-0.0814,-0.7935,-1.3428,-0.7324,0.091,9.8378,-0.0814,-0.7935,-1.3428,-0.7324,-8.7427,1.5302,4.3868,-0.0886,-0.3183,0.0812,0.4911,-0.3786,0.3696,0.692,0.5593,0.4117,0.5876,-0.415,-9.76,-0.33,-0.37,0,0,0,0.4151,0.61,0.468,0.4861,2.71,9.29,-1.62,0,0.1,0,0.2953,0.5537,0.4912,0.604,3.95,8.97,-0.89,0,-0.2,0,-0.5029,-0.4903,-0.5114,0.4949,-9.76,-0.44,0.46,0,0,0,-0.4288,-0.5702,0.4444,0.5415,-2.27,9.46,-0.46,0,0,0,0.5208,0.6482,0.1979,0.5189,4.47,8.54,0.7,0,0,0
525835,0,0,1,-22.1704,-15.271,-10.0854,-3.186,0.0018,-0.011,-23.7085,-17.7759,0.0383,9.8138,0.0383,-1.0071,-1.2207,-0.5188,0.0383,9.8138,0.0383,-1.0071,-1.2207,-0.5188,-8.7427,1.5302,4.3868,-0.0886,-0.3183,0.0812,0.4911,-0.3786,0.3696,0.692,0.5593,0.4117,0.5876,-0.415,-9.78,-0.32,-0.36,0,0,0,0.4151,0.61,0.4681,0.4861,2.65,9.29,-1.68,0,0,0,0.2954,0.5539,0.491,0.6039,3.99,8.99,-0.86,0,-0.2,0,-0.5029,-0.4903,-0.5114,0.495,-9.79,-0.4,0.33,0,0,0,-0.4288,-0.5702,0.4444,0.5416,-2.3,9.44,-0.46,0,0,0,0.5207,0.6482,0.198,0.5189,4.5,8.54,0.68,0,0,0
525836,0,0,1,-22.1704,-15.271,-10.0854,-3.186,0.0055,-0.011,-23.7085,-17.7759,0.0311,9.7731,-0.0335,-1.0681,-1.4038,-0.3662,0.0311,9.7731,-0.0335,-1.0681,-1.4038,-0.3662,-8.7427,1.5302,4.3868,-0.0886,-0.3183,0.0812,0.4911,-0.3786,0.3696,0.692,0.5593,0.4117,0.5876,-0.415,-9.76,-0.3,-0.38,0,0,0,0.4151,0.61,0.4681,0.4861,2.65,9.29,-1.68,0,0,0,0.2954,0.5539,0.491,0.6039,3.99,8.99,-0.86,0,-0.2,0,-0.5028,-0.4903,-0.5114,0.495,-9.74,-0.37,0.1,0,0,0,-0.4288,-0.5702,0.4444,0.5416,-2.3,9.44,-0.46,0,0,0,0.5207,0.6482,0.1981,0.5189,4.52,8.53,0.69,0,0,0
525837,0,0,1,-22.1704,-15.271,-10.0854,-3.186,-0.0073,-0.0165,-23.7085,-17.7759,0.0407,9.7348,0.0024,-1.0681,-1.2512,-0.4883,0.0407,9.7348,0.0024,-1.0681,-1.2512,-0.4883,-8.7419,1.5604,4.4031,-0.0803,-0.3247,0.0802,0.4912,-0.3781,0.3692,0.6925,0.5593,0.4117,0.5876,-0.415,-9.76,-0.3,-0.38,0,0,0,0.4151,0.6099,0.4682,0.4861,2.62,9.3,-1.71,0,0,0,0.2956,0.5541,0.4908,0.6038,4.02,8.97,-0.84,0,-0.2,0,-0.5028,-0.4903,-0.5114,0.495,-9.78,-0.28,-0.07,0,0,0,-0.4288,-0.5702,0.4444,0.5416,-2.32,9.45,-0.47,0,0,0,0.5207,0.6482,0.1981,0.5189,4.52,8.56,0.68,0,0,0
525838,0,0,1,-22.1704,-15.293,-10.0854,-3.208,-0.0165,-0.0201,-23.7085,-17.7759,0.0742,9.7971,-0.0144,-1.0376,-1.2207,-0.3357,0.0742,9.7971,-0.0144,-1.0376,-1.2207,-0.3357,-8.7419,1.5604,4.4031,-0.0803,-0.3247,0.0802,0.4912,-0.3781,0.3692,0.6925,0.5593,0.4116,0.5876,-0.4151,-9.77,-0.3,-0.37,0,0,0,0.4151,0.6099,0.4682,0.4861,2.59,9.3,-1.71,0,0,0,0.2957,0.5543,0.4906,0.6036,4.04,8.99,-0.83,0,-0.2,0,-0.5028,-0.4903,-0.5114,0.495,-9.78,-0.28,-0.07,0,0,0,-0.4288,-0.5701,0.4444,0.5416,-2.33,9.47,-0.49,0,0,0,0.5207,0.6482,0.1981,0.5189,4.52,8.56,0.68,0,0,0
525839,0,0,1,-22.1704,-15.293,-10.0854,-3.208,-0.0201,0.0165,-23.7085,-17.7759,0.0694,9.7636,-0.0144,-1.0986,-1.2817,-0.6104,0.0694,9.7636,-0.0144,-1.0986,-1.2817,-0.6104,-8.7986,1.5951,4.4012,-0.076,-0.3268,0.0841,0.4912,-0.3776,0.3687,0.6929,0.5593,0.4116,0.5876,-0.4151,-9.75,-0.31,-0.4,0,0,0,0.4151,0.6099,0.4682,0.4861,2.53,9.32,-1.71,0,0,0,0.2959,0.5545,0.4904,0.6035,4.06,8.98,-0.8,0,-0.2,0,-0.5028,-0.4903,-0.5115,0.495,-9.73,-0.23,-0.07,0,0,0,-0.4288,-0.5701,0.4444,0.5417,-2.38,9.47,-0.49,0,0,0,0.5207,0.6482,0.1982,0.5189,4.55,8.54,0.72,0,0,0
525840,0,0,1,-22.1704,-15.293,-10.0854,-3.208,-0.0073,0.0128,-23.7085,-17.7759,0.0072,9.7157,-0.079,-0.8545,-1.1597,-0.5188,0.0072,9.7157,-0.079,-0.8545,-1.1597,-0.5188,-8.7986,1.5951,4.4012,-0.076,-0.3268,0.0841,0.4912,-0.3776,0.3687,0.6929,0.5594,0.4116,0.5876,-0.4151,-9.78,-0.33,-0.39,0,0,0,0.4152,0.6099,0.4682,0.486,2.45,9.32,-1.77,0,0,0,0.2961,0.5547,0.4903,0.6034,4.08,8.98,-0.8,0,-0.2,0,-0.5028,-0.4903,-0.5115,0.495,-9.74,-0.21,0.03,0,0,0,-0.4288,-0.57,0.4445,0.5417,-2.4,9.47,-0.48,0,0,0,0.5206,0.6482,0.1983,0.5189,4.58,8.56,0.68,0,0,0
525841,0,0,1,-22.1704,-15.293,-10.0854,-3.208,-0.011,-0.0092,-23.7085,-17.7759,0.0455,9.7157,-0.0096,-0.9766,-1.4038,-0.6409,0.0455,9.7157,-0.0096,-0.9766,-1.4038,-0.6409,-8.7986,1.5951,4.4012,-0.076,-0.3268,0.0841,0.4912,-0.3776,0.3687,0.6929,0.5594,0.4116,0.5876,-0.4151,-9.76,-0.32,-0.39,0,0,0,0.4152,0.6099,0.4682,0.486,2.45,9.32,-1.77,0,0,0,0.2961,0.5547,0.4903,0.6034,4.08,8.98,-0.8,0,-0.2,0,-0.5028,-0.4903,-0.5115,0.495,-9.74,-0.21,0.03,0,0,0,-0.4288,-0.57,0.4445,0.5417,-2.4,9.47,-0.48,0,0,0,0.5206,0.6482,0.1983,0.5189,4.62,8.57,0.69,0,0,0
525842,0,0,1,-22.1704,-15.293,-10.0854,-3.208,-0.0073,0,-23.7085,-17.7759,0.0862,9.8258,0.0072,-0.9155,-1.1597,-0.7629,0.0862,9.8258,0.0072,-0.9155,-1.1597,-0.7629,-8.8562,1.6145,4.3175,-0.0794,-0.3177,0.0862,0.4913,-0.377,0.3683,0.6934,0.5594,0.4116,0.5876,-0.4151,-9.76,-0.32,-0.39,0,0,0,0.4153,0.6099,0.4682,0.486,2.4,9.34,-1.79,0,0,0,0.2963,0.555,0.4901,0.6032,4.07,9,-0.8,0,-0.2,0,-0.5027,-0.4903,-0.5114,0.4951,-9.75,-0.22,0.04,0,0,0,-0.4288,-0.57,0.4445,0.5417,-2.4,9.47,-0.48,0,0,0,0.5206,0.6482,0.1984,0.5189,4.64,8.57,0.7,0,0,0
525843,0,0,1,-22.1704,-15.293,-10.0854,-3.208,-0.0073,0.0073,-23.7085,-17.7759,0.0072,9.7827,-0.012,-1.0376,-1.2207,-0.4578,0.0072,9.7827,-0.012,-1.0376,-1.2207,-0.4578,-8.8562,1.6145,4.3175,-0.0794,-0.3177,0.0862,0.4913,-0.377,0.3683,0.6934,0.5594,0.4115,0.5876,-0.4151,-9.75,-0.3,-0.35,0,0,0,0.4153,0.6099,0.4682,0.486,2.35,9.35,-1.78,0,0,0,0.2965,0.5552,0.4899,0.6031,4.08,8.99,-0.78,0,-0.2,0,-0.5027,-0.4903,-0.5114,0.4952,-9.81,-0.27,-0.13,0,0,0,-0.4288,-0.5699,0.4445,0.5418,-2.5,9.52,-0.46,0,0,0,0.5206,0.6482,0.1984,0.5189,4.64,8.57,0.7,0,0,0
525844,0,0,1,-22.1704,-15.293,-10.0854,-3.208,0.0018,0.0238,-23.7085,-17.7759,0.0479,9.7971,-0.0072,-1.0986,-1.4648,-0.3967,0.0479,9.7971,-0.0072,-1.0986,-1.4648,-0.3967,-8.8562,1.6145,4.3175,-0.0794,-0.3177,0.0862,0.4913,-0.377,0.3683,0.6934,0.5595,0.4115,0.5876,-0.4151,-9.73,-0.31,-0.33,0,0,0,0.4154,0.6099,0.4681,0.4859,2.27,9.38,-1.79,0,0,0,0.2966,0.5554,0.4897,0.6029,4.08,9.01,-0.78,0,-0.2,0,-0.5026,-0.4904,-0.5113,0.4953,-9.88,-0.32,-0.28,0,0,0,-0.4288,-0.5698,0.4445,0.5419,-2.55,9.52,-0.47,0,0,0,0.5205,0.6482,0.1985,0.5189,4.66,8.58,0.68,0,0,0
525845,0,0,1,-22.1704,-15.293,-10.0854,-3.208,0.022,-0.011,-23.7085,-17.7759,0.0383,9.7636,0.0048,-0.8545,-1.3428,-0.6714,0.0383,9.7636,0.0048,-0.8545,-1.3428,-0.6714,-8.9209,1.6249,4.2723,-0.0848,-0.2936,0.0965,0.4913,-0.3766,0.3678,0.6939,0.5595,0.4114,0.5876,-0.415,-9.75,-0.29,-0.31,0,0,0,0.4155,0.6099,0.4681,0.4859,2.24,9.4,-1.81,0,0,0,0.2968,0.5556,0.4895,0.6028,4.06,9.02,-0.77,0,-0.2,0,-0.5025,-0.4904,-0.5113,0.4953,-9.87,-0.37,-0.18,0,0,0,-0.4288,-0.5698,0.4446,0.5419,-2.58,9.54,-0.48,0,0,0,0.5205,0.6482,0.1985,0.5189,4.68,8.6,0.72,0,0,0
525846,0,0,1,-22.1704,-15.293,-10.0854,-3.208,0.022,0.0055,-23.7085,-17.7759,0.0072,9.754,-0.0527,-1.0681,-0.9766,-0.3052,0.0072,9.754,-0.0527,-1.0681,-0.9766,-0.3052,-8.9209,1.6249,4.2723,-0.0848,-0.2936,0.0965,0.4913,-0.3766,0.3678,0.6939,0.5595,0.4114,0.5876,-0.415,-9.73,-0.28,-0.28,0,0,0,0.4156,0.6099,0.4681,0.4858,2.2,9.4,-1.78,0,0,0,0.2968,0.5556,0.4895,0.6028,4.06,9.02,-0.77,0,-0.2,0,-0.5025,-0.4904,-0.5113,0.4953,-9.84,-0.41,0.09,0,0,0,-0.4288,-0.5698,0.4446,0.5419,-2.58,9.54,-0.48,0,0,0,0.5205,0.6482,0.1986,0.5189,4.72,8.6,0.73,0,0,0
525847,0,0,1,-22.1704,-15.293,-10.0854,-3.208,-0.0146,0.0037,-23.7085,-17.7759,0.0168,9.7827,0.0407,-1.0986,-1.3733,-0.3662,0.0168,9.7827,0.0407,-1.0986,-1.3733,-0.3662,-8.8577,1.642,4.338,-0.085,-0.2657,0.1016,0.4913,-0.3761,0.3674,0.6944,0.5595,0.4114,0.5876,-0.415,-9.73,-0.28,-0.28,0,0,0,0.4156,0.6099,0.4681,0.4858,2.2,9.4,-1.78,0,0,0,0.297,0.5559,0.4893,0.6026,4.05,9.03,-0.76,0,-0.3,0,-0.5025,-0.4904,-0.5113,0.4953,-9.84,-0.41,0.09,0,0,0,-0.4288,-0.5697,0.4446,0.5419,-2.62,9.54,-0.51,0,0,0,0.5205,0.6482,0.1987,0.5189,4.76,8.58,0.71,0,0,0
525848,0,0,1,-22.1704,-15.293,-10.0854,-3.208,0.0055,0.0128,-23.7085,-17.7759,0.0622,9.7923,0,-0.9155,-1.0986,-0.5798,0.0622,9.7923,0,-0.9155,-1.0986,-0.5798,-8.8577,1.642,4.338,-0.085,-0.2657,0.1016,0.4913,-0.3761,0.3674,0.6944,0.5596,0.4113,0.5876,-0.415,-9.76,-0.29,-0.27,0,0,0,0.4157,0.6099,0.468,0.4858,2.14,9.43,-1.78,0,0,0,0.2972,0.5561,0.4891,0.6025,4.07,9.02,-0.76,0,-0.3,0,-0.5024,-0.4904,-0.5113,0.4953,-9.8,-0.36,0.23,0,0,0,-0.4288,-0.5697,0.4446,0.542,-2.62,9.53,-0.52,0,0,0,0.5205,0.6482,0.1987,0.5189,4.76,8.58,0.71,0,0,0
525849,0,0,1,-22.1704,-15.293,-10.0854,-3.208,0.0073,-0.0146,-23.7085,-17.7759,0.0311,9.8138,0.0335,-1.0986,-1.4343,-0.4272,0.0311,9.8138,0.0335,-1.0986,-1.4343,-0.4272,-8.8577,1.642,4.338,-0.085,-0.2657,0.1016,0.4913,-0.3761,0.3674,0.6944,0.5596,0.4113,0.5876,-0.415,-9.72,-0.3,-0.31,0,0,0,0.4158,0.6099,0.468,0.4858,2.07,9.46,-1.8,0,0,0,0.2974,0.5564,0.4889,0.6023,4.03,9.02,-0.75,0,-0.3,0,-0.5024,-0.4905,-0.5114,0.4954,-9.79,-0.25,0.19,0,0,0,-0.4288,-0.5697,0.4446,0.542,-2.62,9.53,-0.52,0,0,0,0.5204,0.6482,0.1988,0.5189,4.77,8.59,0.72,0,0,0
525850,0,0,1,-22.1704,-15.293,-10.0854,-3.208,-0.022,-0.0275,-23.7085,-17.7759,0.0622,9.7827,-0.0694,-0.9766,-1.1902,-0.5493,0.0622,9.7827,-0.0694,-0.9766,-1.1902,-0.5493,-8.7388,1.6048,4.4366,-0.0546,-0.2422,0.1002,0.4913,-0.3757,0.3671,0.6948,0.5596,0.4113,0.5876,-0.415,-9.74,-0.3,-0.32,0,0,0,0.4159,0.6099,0.4679,0.4857,2.05,9.51,-1.83,0,0,0,0.2976,0.5566,0.4887,0.6022,3.98,9.02,-0.76,0,-0.3,0,-0.5023,-0.4905,-0.5114,0.4954,-9.73,-0.13,0.03,0,0,0,-0.4288,-0.5697,0.4446,0.542,-2.58,9.53,-0.52,0,0,0,0.5204,0.6482,0.1989,0.5189,4.79,8.6,0.72,0,0,0
525851,0,0,1,-22.1924,-15.293,-10.1074,-3.208,0.0073,0.0311,-23.7085,-17.7759,0.0479,9.7252,0.0239,-1.1292,-1.2817,-0.7019,0.0479,9.7252,0.0239,-1.1292,-1.2817,-0.7019,-8.7388,1.6048,4.4366,-0.0546,-0.2422,0.1002,0.4913,-0.3757,0.3671,0.6948,0.5597,0.4112,0.5876,-0.415,-9.73,-0.28,-0.3,0,0,0,0.4159,0.6099,0.4679,0.4857,2.05,9.51,-1.83,0,0,0,0.2976,0.5566,0.4887,0.6022,3.98,9.02,-0.76,0,-0.3,0,-0.5022,-0.4906,-0.5114,0.4954,-9.69,-0.1,-0.07,0,0,0,-0.4288,-0.5697,0.4446,0.542,-2.58,9.53,-0.52,0,0,0,0.5204,0.6482,0.1989,0.5189,4.76,8.59,0.72,0,0,0
525852,0,0,1,-22.1704,-15.271,-10.1074,-3.208,0.0055,0,-23.7085,-17.7759,0.0862,9.7683,0.0144,-1.0986,-1.4038,-0.7019,0.0862,9.7683,0.0144,-1.0986,-1.4038,-0.7019,-8.7216,1.509,4.2987,-0.0462,-0.2248,0.0967,0.4913,-0.3752,0.3668,0.6952,0.5597,0.4112,0.5876,-0.415,-9.73,-0.28,-0.3,0,0,0,0.4159,0.6099,0.4679,0.4857,2.03,9.52,-1.87,0,0,0,0.2978,0.5569,0.4885,0.602,3.94,9.02,-0.77,0,-0.3,0,-0.5022,-0.4906,-0.5114,0.4954,-9.69,-0.1,-0.07,0,0,0,-0.4288,-0.5697,0.4446,0.5419,-2.55,9.52,-0.51,0,0,0,0.5204,0.6482,0.1989,0.5189,4.76,8.59,0.72,0,0,0
525853,0,0,1,-22.1704,-15.271,-10.1074,-3.208,0.0055,0.0238,-23.7085,-17.7759,0.0263,9.73,0.0311,-1.2207,-1.0681,-0.3967,0.0263,9.73,0.0311,-1.2207,-1.0681,-0.3967,-8.7216,1.509,4.2987,-0.0462,-0.2248,0.0967,0.4913,-0.3752,0.3668,0.6952,0.5597,0.4112,0.5876,-0.415,-9.77,-0.2,-0.22,0,0,0,0.416,0.6099,0.4679,0.4857,2.03,9.54,-1.93,0,0,0,0.2981,0.5571,0.4883,0.6018,3.93,9.06,-0.79,0,-0.3,0,-0.5021,-0.4907,-0.5114,0.4954,-9.67,-0.15,-0.04,0,0,0,-0.4289,-0.5697,0.4446,0.5419,-2.5,9.5,-0.5,0,0,0,0.5203,0.6482,0.199,0.519,4.78,8.57,0.71,0,0,0
525854,0,0,1,-22.1704,-15.271,-10.1074,-3.208,-0.0128,0.0073,-23.7085,-17.7759,0.1006,9.7492,-0.0431,-1.1292,-1.2207,-0.5188,0.1006,9.7492,-0.0431,-1.1292,-1.2207,-0.5188,-8.7216,1.509,4.2987,-0.0462,-0.2248,0.0967,0.4913,-0.3752,0.3668,0.6952,0.5597,0.4112,0.5876,-0.415,-9.69,-0.25,-0.26,0,0,0,0.416,0.6098,0.4679,0.4857,2.05,9.49,-1.92,0,0,0,0.2983,0.5574,0.4881,0.6016,3.89,9.04,-0.78,0,-0.3,0,-0.502,-0.4907,-0.5114,0.4955,-9.7,-0.16,0.01,0,0,0,-0.4289,-0.5697,0.4446,0.5419,-2.48,9.48,-0.51,0,0,0,0.5203,0.6481,0.1991,0.519,4.75,8.55,0.69,0,0,0
525855,0,0,1,-22.1704,-15.293,-10.1074,-3.23,0.0128,0.0037,-23.7085,-17.7759,0.0622,9.7636,0.0287,-1.0986,-1.1292,-0.4272,0.0622,9.7636,0.0287,-1.0986,-1.1292,-0.4272,-8.5705,1.4645,4.3648,-0.0417,-0.2088,0.091,0.4913,-0.3749,0.3666,0.6955,0.5598,0.4111,0.5876,-0.415,-9.68,-0.36,-0.35,0,0,0,0.416,0.6098,0.4679,0.4857,2.06,9.51,-1.96,0,0,0,0.2983,0.5574,0.4881,0.6016,3.89,9.04,-0.78,0,-0.3,0,-0.5019,-0.4908,-0.5113,0.4955,-9.69,-0.23,0.05,0,0,0,-0.4289,-0.5697,0.4446,0.5419,-2.48,9.48,-0.51,0,0,0,0.5203,0.6481,0.1992,0.519,4.76,8.56,0.71,0,0,0
525856,0,0,1,-22.1704,-15.293,-10.1074,-3.23,-0.0293,0.0073,-23.7085,-17.7759,0.1197,9.8282,0.0622,-1.3123,-1.2207,-0.4883,0.1197,9.8282,0.0622,-1.3123,-1.2207,-0.4883,-8.5705,1.4645,4.3648,-0.0417,-0.2088,0.091,0.4913,-0.3749,0.3666,0.6955,0.5598,0.4111,0.5875,-0.415,-9.69,-0.34,-0.37,0,0,0,0.416,0.6098,0.4679,0.4857,2.06,9.51,-1.96,0,0,0,0.2985,0.5576,0.4879,0.6014,3.88,9.04,-0.79,0,-0.3,0,-0.5018,-0.4908,-0.5113,0.4956,-9.72,-0.19,0.07,0,0,0,-0.4289,-0.5697,0.4445,0.5419,-2.44,9.49,-0.51,0,0,0,0.5203,0.6481,0.1993,0.5191,4.76,8.54,0.73,0,0,0
525857,0,0,1,-22.1704,-15.293,-10.1074,-3.23,-0.0092,0.0146,-23.7085,-17.7759,0.0838,9.7588,-0.0239,-1.3428,-1.0986,-0.4272,0.0838,9.7588,-0.0239,-1.3428,-1.0986,-0.4272,-8.4813,1.4345,4.3969,-0.0236,-0.2073,0.0879,0.4913,-0.3744,0.3663,0.6958,0.5598,0.4111,0.5875,-0.415,-9.69,-0.34,-0.37,0,0,0,0.416,0.6098,0.4679,0.4857,2.09,9.47,-1.97,0,0,0,0.2987,0.5579,0.4877,0.6013,3.87,9.07,-0.8,0,-0.3,0,-0.5018,-0.4908,-0.5113,0.4956,-9.72,-0.19,0.07,0,0,0,-0.429,-0.5697,0.4445,0.5419,-2.43,9.47,-0.48,0,0,0,0.5202,0.648,0.1994,0.5191,4.75,8.54,0.74,0,0,0
525858,0,0,1,-22.1704,-15.293,-10.1074,-3.23,-0.0201,-0.0037,-23.7085,-17.7759,0.0239,9.7205,0.0144,-1.1597,-1.1292,-0.4578,0.0239,9.7205,0.0144,-1.1597,-1.1292,-0.4578,-8.4813,1.4345,4.3969,-0.0236,-0.2073,0.0879,0.4913,-0.3744,0.3663,0.6958,0.5598,0.4111,0.5875,-0.415,-9.73,-0.3,-0.33,0,0,0,0.4161,0.6098,0.4679,0.4857,2.09,9.49,-1.97,0,0,0,0.2989,0.5582,0.4875,0.6011,3.86,9.07,-0.8,0,-0.3,0,-0.5017,-0.4909,-0.5113,0.4956,-9.72,-0.2,0.06,0,0,0,-0.429,-0.5697,0.4445,0.5419,-2.44,9.5,-0.45,0,0,0,0.5202,0.648,0.1994,0.5191,4.75,8.54,0.74,0,0,0
525859,0,0,1,-22.1704,-15.293,-10.1074,-3.23,0.0275,-0.0092,-23.7085,-17.7759,0.103,9.7827,0.0479,-1.2817,-1.3123,-0.5188,0.103,9.7827,0.0479,-1.2817,-1.3123,-0.5188,-8.4813,1.4345,4.3969,-0.0236,-0.2073,0.0879,0.4913,-0.3744,0.3663,0.6958,0.5599,0.411,0.5875,-0.415,-9.7,-0.29,-0.31,0,0,0,0.4161,0.6098,0.4679,0.4857,2.09,9.45,-1.95,0,0,0,0.2991,0.5585,0.4873,0.6009,3.84,9.06,-0.83,0,-0.3,0,-0.5017,-0.4909,-0.5113,0.4956,-9.76,-0.18,0.1,0,0,0,-0.429,-0.5697,0.4445,0.5419,-2.45,9.52,-0.44,0,0,0,0.5202,0.648,0.1995,0.5191,4.8,8.59,0.77,0,0,0
525860,0,0,1,-22.1704,-15.293,-10.1074,-3.23,0,-0.0092,-23.7085,-17.7759,0.079,9.7348,0.0766,-1.2817,-0.9155,-0.5493,0.079,9.7348,0.0766,-1.2817,-0.9155,-0.5493,-8.4497,1.4245,4.4119,-0.0238,-0.1951,0.0829,0.4913,-0.3741,0.3661,0.6961,0.5599,0.411,0.5875,-0.415,-9.72,-0.27,-0.28,0,0,0,0.416,0.6098,0.4679,0.4858,2.12,9.43,-1.95,0,0,0,0.2991,0.5585,0.4873,0.6009,3.84,9.06,-0.83,0,-0.3,0,-0.5016,-0.491,-0.5114,0.4956,-9.76,-0.21,0.15,0,0,0,-0.429,-0.5697,0.4445,0.5419,-2.45,9.52,-0.44,0,0,0,0.5202,0.648,0.1996,0.5192,4.82,8.59,0.77,0,0,0
525861,0,0,1,-22.1704,-15.293,-10.1074,-3.23,-0.011,-0.011,-23.7085,-17.7759,0.1077,9.7636,0.0407,-1.3123,-1.2817,-0.3357,0.1077,9.7636,0.0407,-1.3123,-1.2817,-0.3357,-8.4497,1.4245,4.4119,-0.0238,-0.1951,0.0829,0.4913,-0.3741,0.3661,0.6961,0.5599,0.4109,0.5875,-0.415,-9.77,-0.27,-0.28,0,0,0,0.416,0.6098,0.4679,0.4858,2.12,9.43,-1.95,0,0,0,0.2993,0.5587,0.4871,0.6007,3.82,9.03,-0.8,0,-0.3,0,-0.5016,-0.491,-0.5114,0.4956,-9.75,-0.23,0.14,0,0,0,-0.4291,-0.5696,0.4445,0.5419,-2.44,9.54,-0.42,0,0,0,0.5201,0.6479,0.1997,0.5192,4.81,8.59,0.76,0,0,0
525862,0,0,1,-22.1704,-15.293,-10.1074,-3.23,0.0256,0.0073,-23.7085,-17.7759,0.0503,9.7109,-0.0192,-1.2512,-1.2817,-0.3662,0.0503,9.7109,-0.0192,-1.2512,-1.2817,-0.3662,-8.4061,1.4421,4.481,-0.0403,-0.2161,0.0942,0.4913,-0.3737,0.3659,0.6965,0.5599,0.4109,0.5875,-0.415,-9.77,-0.27,-0.28,0,0,0,0.416,0.6097,0.4679,0.4858,2.14,9.41,-1.93,0,0,0,0.2995,0.559,0.4869,0.6004,3.78,8.99,-0.83,0,-0.3,0,-0.5016,-0.491,-0.5114,0.4956,-9.75,-0.23,0.14,0,0,0,-0.4291,-0.5696,0.4444,0.5419,-2.46,9.53,-0.42,0,0,0,0.5201,0.6479,0.1998,0.5192,4.84,8.61,0.76,0,0,0
525863,0,0,1,-22.1704,-15.293,-10.1074,-3.23,-0.0128,0.011,-23.7085,-17.7759,0.091,9.7923,0.0096,-1.1597,-1.0071,-0.7629,0.091,9.7923,0.0096,-1.1597,-1.0071,-0.7629,-8.4061,1.4421,4.481,-0.0403,-0.2161,0.0942,0.4913,-0.3737,0.3659,0.6965,0.56,0.4109,0.5875,-0.415,-9.72,-0.27,-0.34,0,0,0,0.416,0.6097,0.4679,0.4859,2.14,9.38,-1.89,0,0,0,0.2998,0.5593,0.4867,0.6002,3.74,9.03,-0.86,0,-0.3,0,-0.5015,-0.491,-0.5114,0.4956,-9.76,-0.23,0.1,0,0,0,-0.4291,-0.5696,0.4444,0.5419,-2.44,9.53,-0.4,0,0,0,0.5201,0.6479,0.1998,0.5192,4.84,8.61,0.76,0,0,0
525864,0,0,1,-22.1704,-15.293,-10.1074,-3.23,0.0037,0.0128,-23.7085,-17.7759,0.1604,9.8545,0.1006,-1.2207,-1.0376,-0.2441,0.1604,9.8545,0.1006,-1.2207,-1.0376,-0.2441,-8.4061,1.4421,4.481,-0.0403,-0.2161,0.0942,0.4913,-0.3737,0.3659,0.6965,0.56,0.4109,0.5875,-0.415,-9.72,-0.3,-0.37,0,0,0,0.4159,0.6097,0.468,0.4859,2.19,9.4,-1.9,0,0,0,0.3,0.5596,0.4865,0.6,3.67,9.01,-0.88,0,-0.3,0,-0.5015,-0.491,-0.5114,0.4956,-9.79,-0.26,0.06,0,0,0,-0.4292,-0.5696,0.4444,0.5419,-2.43,9.53,-0.38,0,0,0,0.5201,0.6478,0.2,0.5193,4.84,8.57,0.78,0,0.1,0
525865,0,0,1,-22.1704,-15.293,-10.1074,-3.23,-0.0073,-0.0037,-23.7085,-17.7759,0.103,9.7683,0.0192,-1.1597,-1.4954,-0.5188,0.103,9.7683,0.0192,-1.1597,-1.4954,-0.5188,-8.4534,1.4753,4.5566,-0.0466,-0.2335,0.1038,0.4913,-0.3732,0.3656,0.6969,0.56,0.4109,0.5875,-0.415,-9.75,-0.32,-0.4,0,0,0,0.4159,0.6096,0.468,0.486,2.25,9.37,-1.86,0,0,0,0.3,0.5596,0.4865,0.6,3.67,9.01,-0.88,0,-0.3,0,-0.5015,-0.491,-0.5115,0.4956,-9.8,-0.24,0.06,0,0,0,-0.4292,-0.5696,0.4444,0.5419,-2.43,9.53,-0.38,0,0,0,0.5201,0.6478,0.2001,0.5194,4.83,8.59,0.8,0,0.1,0
525866,0,0,1,-22.1704,-15.293,-10.1074,-3.23,-0.0183,0.0092,-23.7085,-17.7759,0.0934,9.8067,0.0479,-1.3733,-1.0681,-0.3967,0.0934,9.8067,0.0479,-1.3733,-1.0681,-0.3967,-8.4534,1.4753,4.5566,-0.0466,-0.2335,0.1038,0.4913,-0.3732,0.3656,0.6969,0.5601,0.4108,0.5875,-0.415,-9.77,-0.32,-0.42,0,0,0,0.4158,0.6096,0.468,0.486,2.3,9.36,-1.84,0,0,0,0.3002,0.5599,0.4863,0.5998,3.62,8.99,-0.87,0,-0.3,0,-0.5014,-0.491,-0.5115,0.4956,-9.77,-0.25,0.05,0,0,0,-0.4292,-0.5696,0.4444,0.5419,-2.39,9.52,-0.39,0,0,0,0.52,0.6477,0.2002,0.5194,4.79,8.6,0.79,0,0.1,0
525867,0,0,1,-22.1924,-15.3149,-10.1294,-3.252,-0.022,0.0146,-23.7085,-17.7759,0.0622,9.8019,0.0455,-1.3428,-1.2207,-0.3052,0.0622,9.8019,0.0455,-1.3428,-1.2207,-0.3052,-8.5422,1.4789,4.6032,-0.0538,-0.2417,0.1057,0.4913,-0.3728,0.3653,0.6973,0.5601,0.4108,0.5875,-0.415,-9.77,-0.32,-0.42,0,0,0,0.4158,0.6096,0.468,0.486,2.3,9.36,-1.84,0,0,0,0.3004,0.5601,0.4861,0.5996,3.54,9,-0.87,0,-0.3,0,-0.5014,-0.491,-0.5115,0.4956,-9.77,-0.25,0.05,0,0,0,-0.4292,-0.5697,0.4443,0.5419,-2.36,9.53,-0.4,0,0,0,0.52,0.6476,0.2003,0.5195,4.77,8.57,0.78,0,0.1,0
525868,0,0,1,-22.1704,-15.293,-10.1294,-3.252,0.0055,0.0018,-23.7085,-17.7759,0.1676,9.8976,0.0838,-1.4038,-1.1902,-0.4272,0.1676,9.8976,0.0838,-1.4038,-1.1902,-0.4272,-8.5422,1.4789,4.6032,-0.0538,-0.2417,0.1057,0.4913,-0.3728,0.3653,0.6973,0.5601,0.4108,0.5874,-0.415,-9.78,-0.31,-0.42,0,0,0,0.4158,0.6096,0.4681,0.4861,2.37,9.35,-1.85,0,0,0,0.3007,0.5604,0.4859,0.5994,3.56,9.02,-0.9,0,-0.3,0,-0.5014,-0.491,-0.5116,0.4956,-9.8,-0.25,0.04,0,0,0,-0.4292,-0.5697,0.4443,0.5419,-2.34,9.51,-0.38,0,0,0,0.52,0.6476,0.2003,0.5195,4.77,8.57,0.78,0,0.1,0
525869,0,0,1,-22.1704,-15.293,-10.1294,-3.252,0.0128,-0.0128,-23.7085,-17.7759,0.1149,9.8186,0.1006,-1.2512,-1.3428,-0.2441,0.1149,9.8186,0.1006,-1.2512,-1.3428,-0.2441,-8.5422,1.4789,4.6032,-0.0538,-0.2417,0.1057,0.4913,-0.3728,0.3653,0.6973,0.5601,0.4108,0.5874,-0.415,-9.78,-0.35,-0.39,0,0,0,0.4157,0.6095,0.4681,0.4862,2.42,9.33,-1.83,0,0,0,0.3009,0.5606,0.4858,0.5992,3.5,9.02,-0.84,0,-0.3,0,-0.5014,-0.491,-0.5116,0.4956,-9.8,-0.25,0.02,0,0,0,-0.4293,-0.5697,0.4443,0.5419,-2.33,9.51,-0.41,0,0,0,0.52,0.6476,0.2004,0.5196,4.72,8.57,0.77,0,0.1,0
525870,0,0,1,-22.1704,-15.293,-10.1294,-3.252,0.0146,-0.0055,-23.7085,-17.7759,0.1149,9.8617,0.0599,-1.5259,-1.4038,-0.3662,0.1149,9.8617,0.0599,-1.5259,-1.4038,-0.3662,-8.5864,1.4871,4.6379,-0.0609,-0.2498,0.1049,0.4913,-0.3723,0.365,0.6977,0.5602,0.4107,0.5874,-0.415,-9.81,-0.33,-0.37,0,0,0,0.4156,0.6095,0.4681,0.4862,2.44,9.3,-1.83,0,0,0,0.3009,0.5606,0.4858,0.5992,3.5,9.02,-0.84,0,-0.3,0,-0.5014,-0.491,-0.5116,0.4956,-9.83,-0.25,0,0,0,0,-0.4293,-0.5697,0.4442,0.5419,-2.32,9.51,-0.4,0,0,0,0.5199,0.6475,0.2005,0.5196,4.71,8.57,0.79,0,0.1,0
525871,0,0,1,-22.1704,-15.293,-10.1294,-3.252,0.0128,0.0165,-23.7085,-17.7759,0.1173,9.8474,0.0838,-1.4648,-1.2817,-0.3357,0.1173,9.8474,0.0838,-1.4648,-1.2817,-0.3357,-8.5864,1.4871,4.6379,-0.0609,-0.2498,0.1049,0.4913,-0.3723,0.365,0.6977,0.5602,0.4107,0.5874,-0.415,-9.82,-0.34,-0.37,0,0,0,0.4156,0.6095,0.4681,0.4862,2.44,9.3,-1.83,0,0,0,0.3011,0.5608,0.4856,0.599,3.52,9.03,-0.9,0,-0.3,0,-0.5014,-0.491,-0.5117,0.4956,-9.82,-0.25,0,0,0,0,-0.4293,-0.5697,0.4442,0.5419,-2.32,9.51,-0.4,0,0,0,0.5199,0.6474,0.2007,0.5197,4.69,8.57,0.79,0,0.1,0
525872,0,0,1,-22.1704,-15.293,-10.1294,-3.252,0.0146,-0.0165,-23.7085,-17.7759,0.1628,9.8785,0.0934,-1.5259,-1.5259,-0.2747,0.1628,9.8785,0.0934,-1.5259,-1.5259,-0.2747,-8.5652,1.5313,4.713,-0.0445,-0.2521,0.1071,0.4913,-0.3719,0.3647,0.6981,0.5602,0.4107,0.5874,-0.415,-9.82,-0.34,-0.37,0,0,0,0.4156,0.6095,0.4681,0.4863,2.46,9.28,-1.82,0,0,0,0.3014,0.561,0.4855,0.5988,3.47,9.01,-0.85,0,-0.3,0,-0.5013,-0.491,-0.5117,0.4955,-9.83,-0.25,-0.02,0,0,0,-0.4293,-0.5697,0.4442,0.5418,-2.35,9.52,-0.38,0,0,0,0.5199,0.6474,0.2008,0.5197,4.71,8.58,0.77,0,0.1,0
525873,0,0,1,-22.1704,-15.293,-10.1294,-3.252,0.011,-0.0073,-23.7085,-17.7759,0.1413,9.8976,0.0455,-1.4038,-1.6479,-0.2747,0.1413,9.8976,0.0455,-1.4038,-1.6479,-0.2747,-8.5652,1.5313,4.713,-0.0445,-0.2521,0.1071,0.4913,-0.3719,0.3647,0.6981,0.5602,0.4107,0.5874,-0.415,-9.79,-0.32,-0.33,0,0,0,0.4156,0.6095,0.4681,0.4863,2.49,9.24,-1.82,0,0,0,0.3016,0.5612,0.4854,0.5986,3.51,9.02,-0.97,0,-0.2,0,-0.5013,-0.491,-0.5117,0.4955,-9.83,-0.25,-0.02,0,0,0,-0.4293,-0.5697,0.4442,0.5419,-2.34,9.54,-0.37,0,0,0,0.5199,0.6474,0.2008,0.5197,4.71,8.58,0.77,0,0.1,0
525874,0,0,1,-22.1704,-15.293,-10.1294,-3.252,0.011,-0.0037,-23.7085,-17.7759,0.1341,9.9096,0.091,-1.4648,-1.3733,-0.2136,0.1341,9.9096,0.091,-1.4648,-1.3733,-0.2136,-8.5652,1.5313,4.713,-0.0445,-0.2521,0.1071,0.4913,-0.3719,0.3647,0.6981,0.5603,0.4107,0.5874,-0.415,-9.81,-0.29,-0.33,0,0,0,0.4156,0.6095,0.468,0.4863,2.47,9.25,-1.81,0,0,0,0.3018,0.5614,0.4852,0.5984,3.64,8.98,-0.9,0,-0.2,0,-0.5013,-0.4909,-0.5118,0.4955,-9.85,-0.24,-0.02,0,0,0,-0.4293,-0.5697,0.4442,0.5419,-2.34,9.54,-0.37,0,0,0,0.5198,0.6473,0.2009,0.5198,4.7,8.6,0.79,0,0.1,0
525875,0,0,1,-22.1704,-15.293,-10.1294,-3.252,-0.0183,-0.0201,-23.7085,-17.7759,0.1006,9.9024,0.0838,-1.1902,-1.6479,-0.061,0.1006,9.9024,0.0838,-1.1902,-1.6479,-0.061,-8.6027,1.5929,4.7184,-0.032,-0.2506,0.1073,0.4913,-0.3714,0.3645,0.6985,0.5603,0.4106,0.5874,-0.415,-9.8,-0.29,-0.34,0,0,0,0.4156,0.6096,0.468,0.4863,2.41,9.23,-1.77,0,0,0,0.3018,0.5614,0.4852,0.5984,3.64,8.98,-0.9,0,-0.2,0,-0.5013,-0.4909,-0.5118,0.4955,-9.85,-0.19,-0.01,0,0,0,-0.4294,-0.5697,0.4441,0.5419,-2.38,9.56,-0.37,0,0,0,0.5198,0.6473,0.201,0.5199,4.72,8.59,0.79,0,0.1,0
525876,0,0,1,-22.1704,-15.293,-10.1294,-3.252,0.022,0.011,-23.7085,-17.7759,0.1484,9.9048,0.103,-1.2512,-1.8616,-0.3357,0.1484,9.9048,0.103,-1.2512,-1.8616,-0.3357,-8.6027,1.5929,4.7184,-0.032,-0.2506,0.1073,0.4913,-0.3714,0.3645,0.6985,0.5604,0.4106,0.5874,-0.415,-9.82,-0.26,-0.37,0,0,0,0.4156,0.6096,0.468,0.4863,2.41,9.23,-1.77,0,0,0,0.302,0.5615,0.4851,0.5983,3.73,8.91,-0.91,0,-0.2,0,-0.5013,-0.4909,-0.5119,0.4955,-9.88,-0.17,0.02,0,0,0,-0.4294,-0.5697,0.4441,0.5419,-2.38,9.56,-0.37,0,0,0,0.5198,0.6472,0.2011,0.5199,4.74,8.57,0.79,0,0.1,0
525877,0,0,1,-22.1704,-15.3149,-10.1294,-3.2739,-0.0092,-0.011,-23.7085,-17.7759,0.103,9.8378,0.0838,-1.2512,-1.1597,-0.0305,0.103,9.8378,0.0838,-1.2512,-1.1597,-0.0305,-8.6438,1.6221,4.7275,-0.0281,-0.2575,0.1026,0.4913,-0.3709,0.3642,0.6989,0.5604,0.4106,0.5874,-0.415,-9.82,-0.26,-0.37,0,0,0,0.4156,0.6096,0.4679,0.4863,2.38,9.23,-1.78,0,0,0,0.3023,0.5618,0.485,0.5981,3.8,8.89,-0.98,0,-0.3,0,-0.5013,-0.4909,-0.5119,0.4955,-9.88,-0.17,0.02,0,0,0,-0.4294,-0.5697,0.4441,0.5419,-2.38,9.58,-0.38,0,0,0,0.5198,0.6472,0.2011,0.5199,4.74,8.57,0.79,0,0.1,0
525878,0,0,1,-22.1704,-15.3149,-10.1294,-3.2739,0.0146,0.0055,-23.7085,-17.7979,0.1077,9.8282,0.1053,-1.4648,-1.4954,-0.0305,0.1077,9.8282,0.1053,-1.4648,-1.4954,-0.0305,-8.6438,1.6221,4.7275,-0.0281,-0.2575,0.1026,0.4913,-0.3709,0.3642,0.6989,0.5604,0.4106,0.5873,-0.415,-9.81,-0.26,-0.37,0,0,0,0.4157,0.6097,0.4678,0.4862,2.29,9.22,-1.77,0,-0.1,0,0.3025,0.562,0.4848,0.5978,3.8,8.86,-0.98,0,-0.3,0,-0.5013,-0.4909,-0.5119,0.4954,-9.87,-0.18,0.03,0,0,0,-0.4294,-0.5698,0.444,0.5419,-2.41,9.57,-0.41,0,0,0,0.5197,0.6472,0.2013,0.52,4.78,8.56,0.71,0,0.1,0
525879,0,0,1,-22.1704,-15.3149,-10.1294,-3.2739,-0.0128,0.011,-23.7085,-17.7979,0.146,9.7731,0.0766,-1.1902,-1.5564,0.1221,0.146,9.7731,0.0766,-1.1902,-1.5564,0.1221,-8.6953,1.6766,4.75,-0.0184,-0.2484,0.103,0.4913,-0.3704,0.3639,0.6992,0.5604,0.4105,0.5873,-0.415,-9.81,-0.25,-0.37,0,0,0,0.4158,0.6098,0.4677,0.4862,2.23,9.24,-1.73,0,-0.1,0,0.3028,0.5622,0.4846,0.5976,3.73,8.9,-0.94,0,-0.3,0,-0.5013,-0.4909,-0.512,0.4954,-9.9,-0.15,0.02,0,0,0,-0.4294,-0.5698,0.444,0.5419,-2.42,9.6,-0.42,0,0,0,0.5197,0.6471,0.2014,0.52,4.73,8.62,0.63,0,0.1,0
525880,0,0,1,-22.1704,-15.3149,-10.1294,-3.2739,0.0183,0.011,-23.7085,-17.7979,0.1125,9.8138,0.1101,-1.1902,-1.5869,0.2136,0.1125,9.8138,0.1101,-1.1902,-1.5869,0.2136,-8.6953,1.6766,4.75,-0.0184,-0.2484,0.103,0.4913,-0.3704,0.3639,0.6992,0.5605,0.4105,0.5873,-0.415,-9.84,-0.24,-0.4,0,0,0,0.4159,0.6099,0.4675,0.4861,2.21,9.22,-1.7,0,-0.1,0,0.3028,0.5622,0.4846,0.5976,3.73,8.9,-0.94,0,-0.3,0,-0.5013,-0.4909,-0.512,0.4954,-9.9,-0.19,0.02,0,0,0,-0.4294,-0.5698,0.444,0.5419,-2.42,9.62,-0.42,0,0,0,0.5196,0.647,0.2015,0.5201,4.8,8.66,0.68,0,0.1,0
525881,0,0,1,-22.1704,-15.3149,-10.1294,-3.2739,0.0092,0.0201,-23.7085,-17.7979,0.1269,9.8162,0.0072,-1.2207,-1.709,0.1831,0.1269,9.8162,0.0072,-1.2207,-1.709,0.1831,-8.6953,1.6766,4.75,-0.0184,-0.2484,0.103,0.4913,-0.3704,0.3639,0.6992,0.5605,0.4105,0.5873,-0.415,-9.86,-0.27,-0.39,0,0,0,0.4159,0.6099,0.4675,0.4861,2.21,9.22,-1.7,0,-0.1,0,0.3031,0.5624,0.4845,0.5974,3.66,8.94,-0.95,0,-0.3,0,-0.5012,-0.4909,-0.5121,0.4953,-9.86,-0.17,0.03,0,0,0,-0.4294,-0.5698,0.444,0.5419,-2.42,9.62,-0.42,0,0,0,0.5196,0.647,0.2017,0.5202,4.8,8.69,0.73,0,0.1,0
525882,0,0,1,-22.1704,-15.3149,-10.1294,-3.2739,-0.011,0.0183,-23.7085,-17.7979,0.0958,9.8857,0.1245,-1.1292,-1.5869,0.1831,0.0958,9.8857,0.1245,-1.1292,-1.5869,0.1831,-8.7372,1.69,4.7168,-0.0116,-0.2434,0.1043,0.4914,-0.3699,0.3637,0.6996,0.5605,0.4105,0.5873,-0.415,-9.86,-0.27,-0.39,0,0,0,0.416,0.61,0.4674,0.486,2.15,9.23,-1.7,0,-0.1,0,0.3034,0.5627,0.4843,0.5972,3.68,8.99,-0.92,0,-0.3,0,-0.5012,-0.4909,-0.5121,0.4953,-9.86,-0.17,0.03,0,0,0,-0.4295,-0.5698,0.4439,0.5418,-2.39,9.63,-0.43,0,0,0,0.5196,0.6469,0.2018,0.5203,4.8,8.72,0.76,0,0.1,0
525883,0,0,1,-22.1704,-15.3149,-10.1294,-3.2739,0.0055,-0.0146,-23.7085,-17.7979,0.0742,9.7971,0.0455,-1.2207,-1.5869,0.4272,0.0742,9.7971,0.0455,-1.2207,-1.5869,0.4272,-8.7372,1.69,4.7168,-0.0116,-0.2434,0.1043,0.4914,-0.3699,0.3637,0.6996,0.5605,0.4104,0.5873,-0.415,-9.89,-0.28,-0.39,0,0,0,0.4161,0.61,0.4673,0.486,2.08,9.23,-1.68,0,-0.1,0,0.3037,0.5629,0.4842,0.5969,3.62,9.02,-0.85,0,-0.3,0,-0.5012,-0.4909,-0.5122,0.4953,-9.86,-0.17,0.03,0,0,0,-0.4295,-0.5699,0.4439,0.5418,-2.36,9.66,-0.43,0,0,0,0.5196,0.6469,0.2018,0.5203,4.8,8.72,0.76,0,0.1,0
